T [ms],AccX [mg],AccY [mg],AccZ [mg],GyroX [mdps],GyroY [mdps],GyroZ [mdps]
181379, 60, -3, 1095, -7210, 14490, -12390
181399, -6, -73, 935, -7770, 15540, -16590
181419, 133, 60, 1098, -6790, 19250, -36050
181439, 88, -11, 1027, -1050, 8260, -31360
181459, 83, -23, 1095, -3780, 2730, -19460
181479, 104, -63, 967, -7140, -5950, -18130
181499, 68, -48, 1005, -11620, 350, -21770
181519, 63, -35, 1011, -9170, 4060, -23310
181539, 47, -43, 1023, -9030, 5250, -25340
181559, 16, -52, 998, -9940, 15540, -27790
181579, 31, -34, 987, -10780, 17920, -31360
181599, 31, -29, 968, -7490, 9170, -31150
181619, 40, 14, 1041, -2800, -1190, -29330
181639, 73, 38, 1038, -2450, -2520, -30940
181659, 111, -1, 953, -12180, -1120, -33110
181679, 158, -6, 901, -23100, 1260, -34580
181699, 208, 67, 760, -26250, 17360, -35000
181719, 86, 135, 1070, -15610, 28000, -24010
181739, -18, 117, 1195, 16870, 700, 13580
181759, -22, 43, 1115, 26530, -34790, 38920
181779, 8, -13, 1055, 15400, -31710, 34090
181799, 34, -58, 985, 1820, -10920, 19740
181819, 55, -86, 900, -10570, 5180, 8260
181839, -3, -70, 1012, -13860, 12950, 4130
181859, 26, -37, 1040, -5950, 11480, 3080
181879, -9, -47, 1054, -490, 2660, 3570
181899, -22, -28, 1079, 3150, -6300, 6860
181919, 36, 20, 1140, 1120, -4480, 3150
181939, 33, -25, 1032, -3920, 3220, -3920
181959, 40, -20, 1034, -11480, 2100, -4060
181979, 30, -45, 978, -12390, 1050, -2380
181999, 42, -7, 1048, -9030, -8610, 2380
182019, 57, 15, 1056, -2100, -14840, 7840
182039, 36, -1, 1047, 280, -12530, 9730
182059, 38, -10, 1054, -3990, -5390, 9170
182079, 34, -37, 1043, -7840, -3710, 7210
182099, 45, -43, 1036, -8680, -4970, 7350
182119, 47, -35, 1063, -9590, -3640, 6650
182139, 34, -65, 1015, -11830, -3780, 6650
182159, 33, -47, 1065, -12460, -5600, 6930
182179, 29, -56, 1048, -14070, -2310, 5390
182199, 26, -59, 1019, -16380, 3010, 3920
182219, 32, -55, 1015, -16100, 4760, 3710
182239, 25, -55, 1018, -13440, -3290, 8190
182259, 40, -60, 1016, -11830, -6650, 11620
182279, 48, -76, 1034, -12600, -6370, 10710
182299, 27, -113, 1000, -12180, -7770, 9030
182319, 12, -107, 1006, -13930, -5740, 8610
182339, -37, -75, 1016, -5040, -2380, 5180
182359, -5, -128, 1008, -1890, 4690, 2520
182379, 12, -138, 978, -10640, 8330, 7210
182399, 5, -157, 987, -5600, -3780, 10990
182419, 66, -78, 1085, 2730, -26390, 7840
182439, 28, -106, 1054, 2380, -29400, 2240
182459, 26, -130, 996, -6230, -16870, -1470
182479, 63, -106, 1012, -11830, 4690, -8610
182499, 66, -110, 999, -11130, 17150, -11760
182519, 58, -114, 1023, -9450, 12740, -10010
182539, 66, -100, 1040, -5390, -1050, -5880
182559, 50, -104, 1032, -3990, -8750, -4130
182579, 58, -105, 1019, -5320, -7420, -3640
182599, 63, -111, 1006, -4830, -5670, -3430
182619, 53, -121, 1012, -4270, -3850, -3920
182639, 55, -115, 995, -3290, -2030, -4200
182659, 62, -85, 1028, -1820, -910, -5460
182679, 65, -60, 1037, 980, -4340, -7070
182699, 60, -56, 1048, 980, -3500, -6860
182719, 70, -58, 1039, -140, -3570, -3640
182739, 70, -63, 1040, -770, -3570, -1260
182759, 41, -68, 1043, 420, 70, 1470
182779, 48, -55, 1062, 2870, 5320, 5740
182799, 58, -60, 1047, 5740, -140, 9660
182819, 53, -74, 1053, 6720, -9590, 10290
182839, 56, -104, 1017, 6020, -15890, 10920
182859, 45, -88, 1061, 6020, -21420, 13790
182879, 38, -33, 1170, 8330, -18480, 13720
182899, 20, -71, 1193, 9310, -13720, 11130
182919, 85, -107, 1069, 2030, -11830, 7560
182939, 147, -102, 1102, -5950, -16240, 700
182959, 137, -101, 1078, -3780, -21000, -840
182979, 101, -84, 1173, 350, -21560, -210
182999, 85, -119, 1094, -1820, -31220, 3990
183019, 78, -128, 1085, -4830, -30660, 4690
183039, 122, -113, 1075, -4760, -20860, -70
183059, 124, -107, 1055, -6930, -16800, -2730
183079, 98, -138, 1020, -7280, -21140, 280
183099, 111, -126, 995, -9380, -15960, 770
183119, 114, -113, 993, -7280, -12040, 910
183139, 153, -76, 1020, -7140, -6370, 1120
183159, 146, -62, 1014, -9240, -8260, 1400
183179, 134, -75, 1014, -11690, -16100, 5040
183199, 128, -111, 957, -14560, -22050, 10080
183219, 143, -122, 926, -16030, -20650, 13650
183239, 110, -150, 908, -13300, -9870, 17360
183259, 87, -152, 965, -9240, 9170, 21630
183279, 151, -101, 975, -4410, 7000, 14840
183299, 156, -93, 956, -910, -10220, 7630
183319, 149, -97, 973, 2660, -28000, 7560
183339, 133, -139, 936, 2800, -33810, 9030
183359, 129, -153, 952, -1050, -28140, 10150
183379, 128, -154, 968, -1260, -22050, 10710
183399, 161, -143, 960, 770, -16800, 8960
183419, 161, -157, 921, 700, -12250, 7840
183439, 147, -138, 999, 3710, -9940, 10570
183459, 218, -93, 999, 14910, -18620, 16240
183479, 214, -105, 955, 18550, -16450, 19110
183499, 162, -93, 1050, 12530, -18270, 18830
183519, 203, -88, 995, 17500, -23310, 17430
183539, 250, -72, 956, 12670, -10850, 10010
183559, 191, -102, 1000, 4970, 4480, -1960
183579, 143, -162, 974, 12810, -14770, 210
183599, 211, -105, 982, 14070, -29540, 6650
183619, 224, -105, 988, 5460, -16240, 2870
183639, 205, -114, 1005, 280, -20790, 3990
183659, 173, -119, 1012, -2590, -10220, 5600
183679, 153, -117, 979, -10990, 20020, 3430
183699, 163, -118, 1002, -16940, 43470, -2660
183719, 176, -114, 1012, -16380, 46690, -6160
183739, 151, -106, 991, -14840, 37870, -4480
183759, 126, -107, 1008, -10850, 31220, -4130
183779, 179, -82, 997, -6650, 22190, 280
183799, 172, -120, 991, 70, 32200, 10080
183819, 143, -95, 1052, 1680, 24500, 16520
183839, 121, -132, 1005, -4760, 12670, 16940
183859, 79, -136, 1002, -11270, 6580, 17220
183879, 96, -138, 1029, -12950, 8820, 10640
183899, 78, -127, 1023, -10360, 13300, 1400
183919, 83, -108, 1043, -10990, 23730, -8680
183939, 117, -123, 1050, -12530, 36470, -14210
183959, 89, -128, 1038, -16100, 34300, -4550
183979, 63, -116, 999, -23870, 33390, 10640
183999, 10, -147, 1049, -23660, 29540, 23310
184019, 48, -155, 1063, -27440, 13580, 35560
184039, 31, -145, 1064, -55790, 5740, 30310
184059, -22, -223, 1032, -94080, 12600, 31220
184079, -88, -155, 1194, -164780, 21350, 31640
184099, -54, -348, 845, -334460, 46620, 12040
184119, -49, -807, 443, -551670, 70630, 6580
184139, 47, -581, 930, -414190, 55720, 32690
184159, -23, -679, 701, -52920, 26530, 49000
184179, -50, -682, 754, -25620, 31010, 37100
184199, -103, -589, 971, -31780, 25900, 20790
184219, -72, -489, 906, -98280, 24710, 280
184239, -107, -732, 524, -359240, 36960, -15400
184259, -204, -1070, 178, -569240, 37450, -1120
184279, -192, -1023, 155, -503650, 21770, 30520
184299, -165, -868, 210, -281260, 280, 31710
184319, -169, -984, 24, -190050, -9100, 27230
184339, -176, -1040, -171, -272370, -10640, 43540
184359, -197, -913, -24, -268730, -2800, 48160
184379, -211, -913, -114, -216300, 8190, 26250
184399, -253, -912, -313, -257320, 7350, 15540
184419, -233, -909, -463, -281470, -1680, 24430
184439, -226, -875, -525, -283640, 1680, 26880
184459, -262, -857, -572, -253540, 9310, 14840
184479, -214, -821, -608, -188510, 7350, 1190
184499, -221, -800, -599, -114450, -980, -8540
184519, -182, -780, -557, -68950, 350, -16100
184539, -141, -840, -590, -36610, 10080, -28840
184559, -126, -809, -608, -41020, 22890, -41230
184579, -149, -824, -558, -54670, 33320, -43680
184599, -146, -832, -627, -65730, 45360, -43400
184619, -162, -815, -631, -66990, 46410, -35840
184639, -61, -714, -466, -59360, 47810, -16800
184659, -103, -759, -645, -190610, 68740, -10990
184679, 13, -668, -759, -274190, 59920, -4060
184699, 11, -587, -841, -283780, 42070, 19810
184719, -26, -553, -932, -230090, 18830, 47320
184739, -52, -457, -868, -137410, -4410, 60550
184759, -59, -384, -858, -86940, -10010, 42210
184779, -84, -386, -898, -126070, -7490, 29260
184799, -109, -316, -931, -211820, -5460, 35070
184819, -91, -269, -1075, -243460, -6790, 37730
184839, -103, -217, -1075, -233870, -8540, 43260
184859, -126, -118, -988, -154140, -3920, 42630
184879, -113, -2, -947, -62930, -1890, 25620
184899, -111, -29, -983, -51310, 4270, 18690
184919, -80, -41, -977, -59080, 7770, 19250
184939, -49, -40, -981, -57190, 14070, 15820
184959, -65, -48, -987, -53830, 22400, 7910
184979, -113, -27, -970, -43470, 17990, 7910
184999, -93, -16, -991, -34790, -1680, 8330
185019, -107, 14, -1002, -33670, -19320, 6160
185039, -79, 62, -977, -32690, -27860, 8610
185059, -80, 48, -986, -26600, -19740, -630
185079, -100, 85, -974, -22890, -4760, -11060
185099, -77, 114, -959, -17570, 5950, -19460
185119, -51, 121, -937, -10850, 15960, -26040
185139, -52, 108, -947, -5460, 22470, -24710
185159, -45, 91, -957, -1260, 22540, -20930
185179, -47, 85, -965, 1050, 20580, -21280
185199, -35, 80, -968, 1470, 16380, -19320
185219, -73, 70, -978, 1190, 13580, -19600
185239, -65, 42, -1021, 140, 10290, -17850
185259, -18, 52, -1019, -1680, 8680, -20160
185279, -7, 84, -995, -630, 5530, -20230
185299, -14, 72, -1010, 0, -5110, -11340
185319, 8, 68, -1029, 1330, -18480, 490
185339, 0, 88, -1056, 6230, -22190, 630
185359, -20, 68, -1021, 12530, -28980, 5530
185379, -31, 48, -1035, 25970, -22400, 4900
185399, -62, 20, -955, 30590, -7000, -3220
185419, -86, -11, -966, 41720, 490, -4410
185439, -64, -14, -892, 52220, 6440, -6930
185459, -6, -49, -866, 66780, 14700, -13230
185479, -25, -79, -894, 69860, 11620, -13440
185499, -68, -112, -917, 36190, -210, -14140
185519, -46, -110, -907, 28420, 0, -15190
185539, -39, -63, -916, 15400, -2170, -9870
185559, -27, -59, -930, 7070, -3010, -4480
185579, -21, -63, -930, 2730, -840, -3920
185599, -11, -65, -930, 1050, -210, -1680
185619, -2, -72, -929, 1610, 840, -1260
185639, -12, -116, -942, 4900, 560, -420
185659, -9, -133, -966, 3780, 350, -1120
185679, -3, -126, -967, -1120, -280, -1330
185699, -2, -122, -968, -4760, -2170, 1330
185719, -16, -132, -981, -5460, -4830, 3920
185739, -12, -151, -991, -4620, -7910, 8610
185759, -26, -145, -1006, -4480, -7420, 9100
185779, -34, -133, -999, -2590, -2590, 12390
185799, -60, -138, -1004, -980, -280, 9730
185819, -66, -139, -986, 630, -1470, 7630
185839, -38, -111, -973, 1400, -980, 3150
185859, -18, -106, -973, 3220, 1260, -2800
185879, -9, -57, -937, 8190, 2870, -7840
185899, -42, -104, -963, 15610, -630, -4410
185919, -24, -121, -961, 17990, -280, -1960
185939, -9, -123, -952, 13510, 2030, -2730
185959, -11, -139, -961, 11410, 1680, -3570
185979, -6, -141, -966, 9870, 210, -3780
185999, -11, -149, -972, 4480, -420, -3710
186019, -19, -129, -966, 1120, -2030, -840
186039, -25, -115, -953, -2870, -1890, 70
186059, -8, -125, -955, -2100, -5250, 4970
186079, -26, -139, -970, -3430, -3990, 2100
186099, -24, -157, -975, -3010, -4900, 1400
186119, -15, -135, -966, -2730, -3290, -2030
186139, -22, -121, -955, -4550, -3640, -140
186159, 8, -135, -979, -5600, -4200, 2380
186179, -4, -130, -964, -4550, -5950, 4410
186199, 3, -122, -952, -3920, -2590, 3290
186219, 0, -124, -954, -2310, -3010, 210
186239, -8, -121, -957, 350, -5040, 1330
186259, -4, -131, -974, -1680, -5250, 4970
186279, -10, -130, -972, -3290, -3290, 4690
186299, 16, -153, -974, -5880, -2870, 8960
186319, -2, -179, -1029, -7350, -2310, 11760
186339, -26, -230, -1011, -8120, 1890, 13020
186359, -162, 1018, -249, 75320, -43190, 43400
186379, -121, 615, -82, 140280, -144690, -560
186399, -62, 67, 6, 4060, -227710, -109480
186419, -40, 41, 2, -83510, -272650, -153790
186439, -42, 86, -2, -113050, -280630, -156870
186459, -55, 286, -45, -149800, -276850, -129080
186479, -161, 1997, -680, -268940, -252980, -910
186499, -930, 1997, -1126, -752360, -69020, 611590
186519, -746, 1143, -635, -1151640, 101150, 1355410
186539, -581, 1997, -615, -564830, -245420, 935200
186559, -155, 1997, -1553, 68670, -929810, -396200
186579, -442, 1997, -1080, -347060, -872900, -310310
186599, -741, 1718, -175, -287490, -34720, 1136870
186619, -479, 929, 95, -51800, 209930, 1483860
186639, -342, 1789, -483, -144130, -326900, 533330
186659, -16, 1997, -1068, -421120, -804090, -258230
186679, -83, 1997, -698, -223930, -595070, 35560
186699, -432, 1740, 4, 536900, 47460, 903210
186719, -370, 920, 99, 567910, 308770, 1131410
186739, -222, 810, -197, -76230, -79800, 492240
186759, -136, 524, -328, -491890, -507570, -159460
186779, -19, 223, -250, -442330, -568680, -336630
186799, 2, 118, -153, -174510, -432530, -282450
186819, -5, 91, -108, 115850, -267540, -200970
186839, -12, 136, -99, 301420, -142660, -135240
186859, -27, 446, -127, 404390, -58310, -89460
186879, -119, 1320, -152, 449190, 8680, -19390
186899, -378, 1523, -229, 274330, 81900, 188230
186919, -318, 1271, -369, -363160, 89040, 469910
186939, -268, 1117, -490, -1008140, -141610, 392700
186959, -239, 1819, -711, -912800, -467320, -113470
186979, 13, 1997, -683, -240450, -608230, -607460
186999, -405, 1997, -671, 139230, -434770, -456610
187019, -457, 1747, -542, -241360, -57680, 331380
187039, -307, 1461, -518, -904960, 26180, 776230
187059, -142, 1997, -833, -850570, -330610, 312550
187079, 25, 1997, -834, -268800, -637840, -350910
187099, -410, 1995, -537, -39060, -486500, -188300
187119, -381, 983, -219, -235130, -62510, 612780
187139, -249, 621, -177, -502740, 42490, 931420
187159, -183, 611, -240, -481320, -226870, 535500
187179, -99, 681, -319, -283850, -507990, -840
187199, 1, 704, -348, -147070, -597380, -244860
187219, -9, 451, -180, 130130, -309260, 76510
187239, -44, 324, -74, 242970, -132930, 304850
187259, -96, 414, -42, 256200, -45710, 398860
187279, -175, 588, 4, 173110, -39830, 389270
187299, -208, 541, -16, -38290, -151900, 234010
187319, -182, 535, -139, -286230, -348670, -47110
187339, -185, 865, -311, -408310, -491400, -297290
187359, -118, 1153, -485, -356160, -531090, -468230
187379, -65, 1486, -504, -97860, -435610, -477680
187399, -113, 1769, -366, 145950, -239260, -258440
187419, -223, 1763, -304, -4410, -95270, 21840
187439, -189, 1667, -452, -484260, -149520, 54250
187459, -149, 1787, -656, -703850, -325780, -218260
187479, -67, 1997, -698, -382620, -381710, -475580
187499, -95, 1997, -510, -16660, -236880, -381360
187519, -190, 1834, -459, -187250, -44870, -30730
187539, -129, 1309, -440, -616000, -25970, 96390
187559, -112, 1238, -427, -623490, -139300, -130620
187579, -74, 1296, -378, -248500, -184660, -383180
187599, -52, 1149, -271, -3010, -113190, -390110
187619, -68, 806, -201, -78050, 6090, -197330
187639, -67, 495, -172, -288610, 94780, -11200
187659, -53, 318, -167, -405160, 129570, 45850
187679, -52, 268, -174, -357770, 144900, -1540
187699, -66, 320, -185, -171290, 175490, -89390
187719, -87, 581, -241, 79590, 229180, -158900
187739, -110, 1040, -302, 296730, 298970, -159460
187759, -177, 1244, -256, 400540, 390740, -45710
187779, -222, 1141, -289, 264600, 489510, 169120
187799, -183, 1087, -407, -69020, 528780, 324380
187819, -155, 1321, -531, -272020, 502880, 309820
187839, -215, 1897, -542, -94010, 506170, 214830
187859, -300, 1997, -438, 233380, 588910, 213640
187879, -219, 1955, -606, 132580, 653730, 308770
187899, -122, 1825, -746, -396970, 583730, 282940
187919, -186, 1913, -619, -577640, 492310, 129150
187939, -251, 1709, -373, -206850, 554470, 98490
187959, -171, 1303, -326, -59010, 638400, 169750
187979, -73, 1018, -389, -382060, 561470, 78750
187999, -76, 940, -406, -625520, 426510, -150640
188019, -132, 899, -332, -500850, 411460, -286930
188039, -169, 747, -225, -226800, 509250, -250320
188059, -163, 517, -147, -91070, 604100, -144900
188079, -135, 333, -121, -212800, 573300, -189560
188099, -129, 300, -135, -202930, 526750, -299880
188119, -134, 444, -197, -109550, 517230, -367570
188139, -139, 722, -271, 12180, 555030, -338240
188159, -174, 789, -252, 68460, 640850, -171360
188179, -226, 798, -254, -39550, 726600, 57820
188199, -241, 931, -348, -277060, 751660, 206850
188219, -201, 995, -442, -508550, 714560, 221760
188239, -187, 1173, -484, -509950, 660380, 106400
188259, -225, 1569, -442, -236250, 645400, -34370
188279, -219, 1794, -369, -87290, 642040, -98350
188299, -122, 1752, -514, -373240, 571900, -155960
188319, -90, 1632, -652, -717710, 475580, -284270
188339, -185, 1715, -597, -581840, 490560, -371700
188359, -259, 1695, -378, -174230, 592060, -336910
188379, -223, 1492, -294, -91700, 596820, -339290
188399, -166, 1343, -405, -290080, 471380, -513240
188419, -164, 1277, -465, -310030, 399070, -674800
188439, -195, 1146, -375, -79730, 476070, -617680
188459, -213, 864, -234, 104510, 601440, -406910
188479, -194, 586, -153, 85610, 652960, -252280
188499, -162, 429, -131, -9800, 617820, -241500
188519, -150, 434, -140, -46060, 557410, -303520
188539, -137, 581, -165, -20160, 518280, -346850
188559, -129, 706, -175, 3150, 510720, -323120
188579, -130, 683, -166, -54110, 526610, -220500
188599, -139, 753, -213, -217910, 537600, -93310
188619, -133, 856, -298, -414400, 514150, -28840
188639, -144, 957, -335, -524300, 459690, -67550
188659, -192, 1265, -344, -411250, 400260, -206080
188679, -196, 1640, -317, -130410, 354620, -365190
188699, -140, 1787, -366, -8260, 308700, -445550
188719, -102, 1644, -513, -225190, 257320, -439950
188739, -159, 1585, -540, -464450, 234780, -416010
188759, -234, 1736, -429, -307370, 268380, -417060
188779, -223, 1744, -301, 82460, 305620, -435680
188799, -145, 1553, -335, 175770, 263690, -467110
188819, -100, 1271, -416, -70140, 174650, -502390
188839, -122, 1115, -379, -214410, 151130, -485240
188859, -152, 998, -259, -47320, 218190, -392840
188879, -154, 837, -136, 201950, 292880, -278040
188899, -130, 667, -82, 271530, 298200, -210140
188919, -94, 555, -85, 157780, 234710, -207620
188939, -66, 567, -141, -102620, 104370, -229950
188959, -48, 667, -208, -128310, 104020, -173460
188979, -64, 672, -206, -96250, 155680, -45080
188999, -106, 753, -193, -60130, 224700, 116060
189019, -162, 929, -198, -81830, 260960, 241710
189039, -185, 1029, -209, -180250, 234430, 283220
189059, -154, 1125, -273, -303870, 133350, 202300
189079, -109, 1310, -379, -355390, 13440, 59780
189099, -94, 1546, -454, -304990, -34160, 4690
189119, -154, 1707, -447, -238840, 17010, 119700
189139, -230, 1684, -412, -277410, 84350, 303450
189159, -205, 1591, -423, -398230, 55300, 352380
189179, -143, 1641, -475, -430640, -67620, 213780
189199, -101, 1674, -480, -318150, -160930, 71610
189219, -132, 1551, -406, -206570, -145390, 111860
189239, -185, 1288, -322, -213990, -82110, 276710
189259, -181, 981, -253, -281750, -74200, 373940
189279, -148, 803, -220, -286650, -143710, 321440
189299, -119, 703, -208, -200130, -238280, 187320
189319, -98, 633, -190, -87150, -304920, 78190
189339, -86, 569, -168, -3430, -329140, 43260
189359, -86, 528, -141, 43050, -325010, 67480
189379, -106, 564, -134, 63980, -314020, 110460
189399, -145, 690, -145, 66290, -316190, 134680
189419, -186, 811, -170, 44520, -349160, 109830
189439, -213, 943, -234, -11130, -425460, 17010
189459, -205, 1120, -351, -91280, -526050, -116480
189479, -165, 1310, -434, -158480, -599480, -215250
189499, -151, 1466, -448, -168280, -603190, -213430
189519, -190, 1626, -414, -129080, -544180, -109130
189539, -245, 1743, -431, -140000, -485730, 21280
189559, -255, 1771, -523, -276710, -493430, 84700
189579, -206, 1692, -578, -436520, -558600, 64960
189599, -167, 1574, -507, -433230, -601860, 38640
189619, -179, 1458, -406, -272580, -574420, 80290
189639, -214, 1273, -341, -161560, -512120, 188650
189659, -230, 1042, -311, -195510, -473060, 305340
189679, -209, 823, -282, -266350, -478590, 371490
189699, -184, 701, -257, -251440, -514360, 364560
189719, -161, 641, -237, -142800, -556150, 301840
189739, -149, 613, -221, -14210, -588280, 223720
189759, -145, 596, -208, 69860, -605290, 168000
189779, -151, 613, -200, 82600, -602350, 158410
189799, -177, 723, -213, 43050, -598920, 174370
189819, -210, 840, -238, -21770, -609420, 177380
189839, -236, 941, -282, -111440, -641340, 155400
189859, -243, 1054, -349, -205520, -684320, 119770
189879, -229, 1181, -420, -266000, -709660, 106330
189899, -204, 1326, -460, -259770, -691390, 149380
189919, -214, 1466, -452, -200200, -630700, 251650
189939, -258, 1576, -435, -162540, -562100, 376110
189959, -293, 1589, -451, -200130, -529200, 467880
189979, -274, 1508, -476, -250180, -543410, 493570
189999, -210, 1365, -454, -196910, -570360, 466340
190019, -170, 1299, -402, -39760, -568820, 431410
190039, -164, 1249, -346, 98070, -533470, 428260
190059, -174, 1147, -299, 139300, -488180, 453390
190079, -178, 990, -264, 117740, -460740, 462560
190099, -165, 838, -242, 101150, -466830, 411320
190119, -146, 711, -226, 114100, -498400, 302470
190139, -131, 635, -216, 133420, -531580, 183610
190159, -117, 617, -208, 133560, -546140, 101080
190179, -105, 674, -216, 109340, -535710, 72240
190199, -107, 786, -232, 65030, -502040, 94710
190219, -128, 861, -239, 2590, -450380, 160790
190239, -155, 919, -249, -72380, -395290, 244090
190259, -172, 1003, -281, -144270, -359380, 299530
190279, -165, 1117, -333, -197470, -352310, 302750
190299, -145, 1260, -390, -216090, -359310, 271390
190319, -134, 1425, -427, -189210, -346640, 257460
190339, -159, 1522, -414, -130830, -291900, 306040
190359, -193, 1532, -386, -88130, -213500, 400540
190379, -190, 1468, -378, -98280, -161910, 464100
190399, -151, 1369, -383, -128520, -166250, 437570
190419, -114, 1312, -377, -109480, -195650, 351680
190439, -106, 1266, -337, -33600, -195160, 293930
190459, -123, 1172, -285, 36330, -152250, 304500
190479, -130, 1023, -240, 48580, -101220, 342440
190499, -116, 862, -212, 14140, -80430, 340690
190519, -95, 731, -192, -15120, -97370, 272580
190539, -76, 646, -175, -7700, -127540, 168630
190559, -68, 634, -166, 21770, -145110, 77210
190579, -69, 698, -172, 42980, -142380, 23170
190599, -81, 785, -186, 38220, -125090, 4620
190619, -93, 803, -190, 3220, -102970, 6930
190639, -105, 812, -198, -103040, -90580, -31570
190659, -110, 895, -229, -123760, -108150, -108220
190679, -107, 1045, -272, -117250, -126070, -198730
190699, -99, 1202, -315, -108220, -124810, -258160
190719, -93, 1296, -338, -121170, -93100, -255220
190739, -103, 1322, -343, -154280, -43820, -212100
190759, -123, 1334, -341, -178920, -7420, -194600
190779, -131, 1383, -356, -168420, -630, -243670
190799, -123, 1463, -381, -129710, -6230, -326480
190819, -103, 1454, -381, -101430, 10220, -366380
190839, -95, 1314, -352, -105630, 61740, -330960
190859, -104, 1127, -312, -118020, 124810, -271040
190879, -112, 1020, -288, -98980, 171850, -249620
190899, -112, 968, -269, -43750, 200760, -269920
190919, -105, 922, -251, 11410, 226100, -290570
190939, -95, 838, -230, 29330, 260750, -276010
190959, -89, 733, -214, 6230, 307090, -224070
190979, -95, 681, -218, -34160, 359380, -156380
190999, -108, 737, -243, -69230, 411810, -92470
191019, -133, 868, -283, -92470, 462280, -37170
191039, -155, 941, -294, -114240, 508900, 11410
191059, -165, 972, -291, -149800, 539560, 36820
191079, -158, 1022, -299, -199150, 540470, 13510
191099, -146, 1110, -324, -245980, 516740, -55440
191119, -138, 1211, -356, -279160, 490350, -134050
191139, -139, 1274, -381, -305970, 481250, -185150
191159, -152, 1277, -389, -330890, 489510, -206920
191179, -167, 1252, -376, -331030, 499380, -233730
191199, -181, 1205, -344, -277760, 498400, -292880
191219, -180, 1139, -308, -186900, 488180, -369460
191239, -170, 1090, -296, -115220, 478170, -424690
191259, -163, 1067, -311, -88620, 477190, -439110
191279, -165, 1037, -326, -79450, 490910, -416360
191299, -176, 965, -309, -51310, 520100, -366450
191319, -181, 875, -273, 1120, 556010, -304360
191339, -176, 791, -232, 48510, 582750, -248570
191359, -168, 745, -205, 59990, 590240, -211540
191379, -155, 774, -210, 29050, 580580, -191520
191399, -145, 850, -243, -33530, 563640, -177660
191419, -142, 873, -265, -114170, 549080, -158550
191439, -146, 870, -277, -191380, 541450, -133910
191459, -154, 880, -268, -234850, 536830, -119420
191479, -163, 937, -252, -230300, 524860, -134470
191499, -166, 1048, -253, -162050, 449260, -263760
191519, -157, 1159, -279, -159670, 396130, -341180
191539, -143, 1243, -327, -174790, 359590, -386680
191559, -146, 1260, -356, -166110, 356300, -383950
191579, -162, 1246, -350, -107380, 377230, -350770
191599, -186, 1250, -322, -21700, 390880, -328580
191619, -186, 1276, -308, 42630, 374990, -341040
191639, -166, 1258, -309, 62720, 339570, -367430
191659, -140, 1184, -310, 56280, 315700, -362740
191679, -128, 1088, -292, 54390, 321580, -305830
191699, -131, 979, -257, 64680, 344960, -221270
191719, -133, 868, -214, 73150, 360780, -150150
191739, -130, 817, -190, 67970, 354620, -115360
191759, -120, 815, -183, 46620, 329980, -109340
191779, -109, 834, -188, 10220, 300160, -108640
191799, -102, 854, -201, -38500, 276920, -93100
191819, -104, 866, -209, -92260, 264040, -58520
191839, -111, 897, -221, -139090, 255780, -18620
191859, -120, 946, -227, -169050, 241150, 4410
191879, -123, 1010, -232, -182140, 211400, -5110
191899, -120, 1102, -251, -189560, 166530, -44170
191919, -111, 1195, -284, -206990, 117530, -88550
191939, -105, 1251, -318, -238280, 82040, -106610
191959, -114, 1237, -319, -266350, 68600, -87500
191979, -123, 1209, -299, -269290, 65660, -56770
191999, -127, 1201, -284, -247030, 51660, -52290
192019, -120, 1194, -281, -223020, 17850, -83020
192039, -102, 1152, -290, -216300, -22260, -119910
192059, -96, 1086, -284, -219240, -47110, -126070
192079, -98, 1009, -264, -207760, -49140, -94430
192099, -101, 930, -229, -171570, -41510, -50610
192119, -104, 867, -203, -124110, -42910, -25270
192139, -98, 819, -194, -85050, -61180, -27300
192159, -89, 789, -197, -59920, -88200, -41020
192179, -81, 794, -209, -38080, -109200, -44100
192199, -82, 830, -221, -5390, -115150, -24920
192219, -91, 881, -223, 44940, -106400, 12670
192239, -105, 931, -218, 104720, -92610, 53130
192259, -116, 970, -220, 153510, -89460, 74690
192279, -118, 1020, -250, 176260, -107870, 63420
192299, -110, 1083, -287, 180740, -142170, 27650
192319, -102, 1154, -312, 192080, -172620, -5460
192339, -108, 1203, -308, 226800, -182420, -12040
192359, -126, 1232, -289, 287140, -172410, 20930
192379, -135, 1230, -290, 259630, -192290, 7840
192399, -131, 1197, -307, 217140, -228200, -29820
192419, -117, 1145, -312, 202020, -256760, -64610
192439, -108, 1101, -296, 217770, -263550, -72940
192459, -105, 1054, -260, 226870, -255360, -54530
192479, -109, 992, -230, 198660, -247380, -25340
192499, -109, 919, -218, 139930, -248710, -2730
192519, -104, 858, -214, 83720, -257110, 6790
192539, -98, 816, -212, 56000, -263830, 9660
192559, -87, 798, -208, 56070, -261870, 18410
192579, -83, 820, -207, 63980, -248920, 43540
192599, -87, 854, -209, 61110, -226310, 88830
192619, -99, 889, -216, 41160, -198380, 148470
192639, -111, 952, -233, 14280, -173320, 205660
192659, -121, 1021, -252, 70, -156870, 243040
192679, -121, 1101, -274, 10640, -150640, 252630
192699, -116, 1169, -289, 38360, -150850, 242550
192719, -117, 1224, -302, 62720, -148260, 236460
192739, -123, 1254, -308, 69930, -135240, 253540
192759, -130, 1257, -302, 66640, -115360, 286510
192779, -134, 1216, -287, 68530, -102200, 305620
192799, -126, 1145, -267, 80850, -107660, 287350
192819, -114, 1091, -258, 93800, -128590, 240310
192839, -104, 1059, -253, 95550, -148470, 198660
192859, -105, 1013, -242, 87990, -154280, 185640
192879, -109, 947, -218, 79450, -148540, 193550
192899, -113, 867, -192, 71750, -145390, 196070
192919, -108, 816, -177, 59500, -157010, 173530
192939, -105, 805, -185, 38780, -182700, 129080
192959, -100, 840, -203, 12250, -211050, 82670
192979, -97, 879, -218, -14280, -229320, 54320
192999, -100, 888, -218, -35840, -231490, 52150
193019, -111, 915, -215, -53550, -222810, 66850
193039, -120, 978, -232, -75530, -216510, 78050
193059, -124, 1038, -254, -109270, -221550, 71890
193079, -117, 1090, -286, -150430, -235340, 51660
193099, -111, 1143, -309, -182140, -245070, 34440
193119, -115, 1179, -316, -190470, -238840, 36750
193139, -122, 1186, -304, -182070, -217630, 59920
193159, -126, 1173, -301, -179620, -194880, 88060
193179, -123, 1141, -302, -195650, -183890, 101640
193199, -112, 1113, -309, -215740, -185150, 77350
193219, -102, 1083, -299, -187180, -176260, 68600
193239, -100, 1042, -280, -151830, -154350, 74830
193259, -101, 983, -251, -132230, -131320, 86450
193279, -101, 939, -243, -130200, -117110, 87430
193299, -97, 898, -239, -125720, -112140, 70280
193319, -87, 840, -229, -100240, -109410, 39900
193339, -81, 805, -216, -55300, -102200, 8400
193359, -80, 816, -213, -9450, -89320, -14560
193379, -85, 872, -220, 22470, -73360, -27300
193399, -88, 892, -226, 38920, -57330, -35000
193419, -94, 905, -232, 50750, -44660, -47040
193439, -101, 974, -252, 71470, -37100, -70840
193459, -104, 1057, -272, 104370, -33040, -103460
193479, -106, 1110, -283, 138040, -28280, -131950
193499, -106, 1136, -287, 155750, -19320, -143990
193519, -107, 1150, -295, 154770, -6160, -139860
193539, -112, 1157, -297, 151690, 8470, -131040
193559, -114, 1157, -298, 161630, 20440, -129430
193579, -114, 1144, -285, 179340, 27230, -136780
193599, -105, 1112, -276, 185990, 31080, -142730
193619, -98, 1066, -266, 173040, 37660, -135030
193639, -95, 1029, -258, 150710, 50610, -112070
193659, -97, 982, -244, 132790, 67550, -83510
193679, -96, 923, -222, 121660, 82670, -59990
193699, -91, 877, -204, 107590, 90860, -47460
193719, -88, 856, -196, 81200, 92540, -42420
193739, -85, 867, -205, 42840, 93030, -35420
193759, -87, 872, -210, 630, 97720, -19670
193779, -92, 863, -209, -37730, 107660, 4340
193799, -100, 901, -215, -67970, 117670, 26740
193819, -106, 971, -227, -92540, 121310, 35980
193839, -104, 1009, -242, -118790, 115570, 29400
193859, -99, 1015, -252, -149240, 104230, 13930
193879, -97, 1041, -268, -177940, 95690, 2380
193899, -103, 1103, -282, -198100, 95130, 2170
193919, -109, 1145, -292, -209790, 99890, 8610
193939, -112, 1153, -294, -217210, 102830, 10080
193959, -106, 1132, -291, -221760, 98840, -2940
193979, -100, 1118, -291, -220920, 90020, -27720
193999, -97, 1106, -291, -213010, 84560, -49910
194019, -99, 1058, -276, -200480, 87430, -58800
194039, -99, 987, -258, -185080, 95760, -58450
194059, -96, 933, -242, -138110, 105420, -73010
194079, -93, 917, -240, -103880, 106330, -89740
194099, -89, 899, -235, -66010, 111580, -98070
194119, -85, 860, -225, -30800, 124180, -89880
194139, -90, 843, -219, -1750, 141050, -69720
194159, -96, 881, -231, 25060, 157290, -48090
194179, -103, 933, -242, 56560, 170590, -30800
194199, -104, 961, -241, 91560, 180320, -18200
194219, -107, 1013, -250, 117810, 186340, -6160
194239, -110, 1086, -268, 126630, 191380, 12390
194259, -113, 1120, -279, 121590, 199920, 42350
194279, -118, 1129, -283, 113750, 212170, 78400
194299, -124, 1137, -279, 112420, 221690, 106610
194319, -127, 1160, -277, 116060, 222950, 118090
194339, -125, 1165, -269, 112490, 215320, 116760
194359, -121, 1116, -260, 92050, 202930, 113680
194379, -114, 1047, -245, 61950, 190260, 115010
194399, -113, 994, -236, 39620, 178990, 117810
194419, -113, 981, -225, 32340, 167230, 115990
194439, -114, 957, -211, 31780, 150920, 104860
194459, -109, 918, -197, 23800, 126770, 83790
194479, -103, 895, -196, 3710, 96250, 56980
194499, -99, 883, -199, -18900, 65660, 31500
194519, -97, 865, -195, -32130, 40110, 12110
194539, -99, 862, -191, -32410, 19320, -2730
194559, -105, 887, -192, -27510, -1190, -19040
194579, -107, 923, -200, -28350, -26250, -41720
194599, -106, 953, -214, -39340, -55790, -70000
194619, -106, 978, -231, -55160, -84490, -97020
194639, -106, 1021, -247, -65380, -106120, -115220
194659, -111, 1072, -261, -64610, -118300, -122430
194679, -116, 1107, -262, -57890, -125160, -123830
194699, -117, 1105, -261, -57330, -133280, -127890
194719, -114, 1104, -271, -68950, -145950, -138390
194739, -106, 1115, -284, -83300, -158270, -150570
194759, -102, 1104, -282, -86030, -161910, -154140
194779, -99, 1061, -265, -75250, -153860, -143080
194799, -99, 1014, -247, -63560, -139860, -122570
194819, -94, 984, -246, -62930, -128310, -103600
194839, -92, 983, -254, -69440, -121100, -91070
194859, -88, 964, -254, -68180, -112700, -80150
194879, -86, 907, -235, -49420, -97440, -63700
194899, -84, 885, -222, -19600, -76230, -40880
194919, -87, 943, -235, 17780, -39270, 4410
194939, -89, 945, -237, 27370, -23520, 25550
194959, -89, 916, -230, 44660, -8120, 43400
194979, -92, 944, -238, 70770, 4900, 53270
194999, -94, 1003, -248, 97860, 16870, 60410
195019, -95, 1036, -251, 115850, 30030, 73010
195039, -100, 1054, -254, 119840, 43820, 91630
195059, -103, 1067, -259, 116620, 55650, 109550
195079, -107, 1088, -263, 117810, 64120, 120120
195099, -108, 1108, -265, 126420, 68810, 121940
195119, -108, 1105, -259, 132930, 69790, 118720
195139, -108, 1091, -251, 126070, 67620, 115780
195159, -108, 1086, -253, 106400, 64260, 116760
195179, -106, 1042, -245, 86170, 61110, 119840
195199, -105, 977, -224, 75670, 56420, 117950
195219, -104, 943, -210, 71820, 46550, 105840
195239, -102, 917, -200, 62580, 31080, 86520
195259, -96, 886, -194, 41580, 12810, 67480
195279, -98, 875, -197, 15820, -4410, 53060
195299, -97, 868, -197, -3010, -18830, 41650
195319, -98, 864, -192, -11130, -32060, 28980
195339, -102, 905, -200, -15470, -47040, 11270
195359, -104, 960, -215, -27020, -65730, -11270
195379, -103, 979, -227, -51660, -86310, -34020
195399, -103, 995, -240, -81830, -103740, -50890
195419, -101, 1032, -253, -102690, -113750, -59710
195439, -105, 1060, -258, -107800, -116200, -62230
195459, -107, 1080, -258, -106400, -115500, -63070
195479, -108, 1089, -264, -113470, -116690, -66220
195499, -105, 1094, -273, -132230, -120190, -71540
195519, -102, 1088, -279, -149100, -121660, -75810
195539, -98, 1062, -271, -149310, -117180, -76720
195559, -96, 1052, -263, -133910, -107030, -74270
195579, -95, 1019, -253, -118650, -94500, -69020
195599, -90, 986, -250, -114450, -81830, -60900
195619, -90, 970, -255, -115220, -69020, -51450
195639, -89, 949, -248, -105770, -54250, -42910
195659, -86, 913, -234, -78680, -36750, -35910
195679, -86, 882, -219, -43260, -18970, -31360
195699, -83, 881, -219, -15890, -4060, -28840
195719, -82, 884, -227, -1260, 8470, -24920
195739, -85, 905, -236, 9940, 22680, -15680
195759, -90, 934, -239, 29890, 41160, -840
195779, -96, 966, -236, 92120, 81130, 29820
195799, -101, 1000, -239, 109900, 92890, 36960
195819, -101, 1032, -249, 111580, 98070, 39200
195839, -100, 1054, -262, 108150, 102690, 43610
195859, -103, 1084, -270, 112280, 111930, 55230
195879, -109, 1108, -270, 124110, 125090, 72100
195899, -114, 1106, -259, 130760, 135100, 85820
195919, -114, 1068, -246, 121730, 134750, 87570
195939, -107, 1039, -243, 101570, 124810, 77910
195959, -105, 1043, -248, 84420, 113610, 67480
195979, -104, 1030, -245, 76930, 108150, 66150
195999, -106, 974, -220, 72380, 106400, 72100
196019, -105, 927, -203, 59290, 100100, 73710
196039, -105, 910, -197, 36610, 83930, 62020
196059, -101, 906, -201, 12880, 60620, 38990
196079, -97, 886, -201, -3710, 37100, 14140
196099, -97, 883, -199, -12040, 18410, -4130
196119, -99, 901, -201, -18410, 4410, -14420
196139, -102, 913, -201, -30170, -8680, -21140
196159, -104, 932, -209, -48370, -24570, -31010
196179, -105, 966, -224, -66570, -43820, -47950
196199, -106, 1018, -242, -77350, -63140, -69300
196219, -105, 1052, -251, -79940, -78050, -87080
196239, -103, 1060, -250, -81690, -86170, -95060
196259, -105, 1064, -253, -89950, -89530, -93660
196279, -108, 1076, -260, -102900, -91630, -90090
196299, -107, 1068, -263, -110670, -94360, -91210
196319, -103, 1049, -256, -107100, -97020, -97930
196339, -97, 1030, -253, -96810, -97440, -104650
196359, -95, 1028, -255, -89040, -93310, -104020
196379, -93, 1007, -251, -85680, -83580, -92960
196399, -91, 966, -243, -81060, -69370, -75180
196419, -91, 939, -237, -69230, -54250, -58730
196439, -88, 931, -233, -50400, -41440, -49210
196459, -85, 910, -228, -29050, -30520, -44170
196479, -83, 888, -222, -10150, -18760, -36960
196499, -84, 904, -227, 4970, -4760, -24080
196519, -88, 914, -231, 19740, 11340, -6650
196539, -90, 917, -226, 38290, 28700, 12530
196559, -93, 947, -229, 59080, 44730, 28910
196579, -97, 997, -242, 75390, 56630, 40180
196599, -100, 1032, -251, 83650, 65520, 49770
196619, -100, 1039, -252, 87010, 74200, 61600
196639, -104, 1054, -253, 96530, 91840, 86310
196659, -108, 1085, -256, 100100, 96320, 92750
196679, -111, 1100, -258, 97090, 96880, 95480
196699, -109, 1077, -250, 86310, 94150, 96040
196719, -105, 1025, -236, 71610, 89180, 95690
196739, -106, 1016, -236, 58730, 82950, 94150
196759, -107, 1023, -234, 50050, 76300, 91700
196779, -104, 979, -220, 41650, 67830, 87430
196799, -103, 909, -199, 28000, 55020, 78120
196819, -99, 878, -192, 10080, 37520, 62930
196839, -99, 890, -200, -5740, 18480, 44870
196859, -96, 888, -201, -14770, 1680, 28770
196879, -96, 860, -192, -18760, -12040, 16660
196899, -96, 865, -192, -24010, -25060, 6370
196919, -100, 906, -204, -33250, -39690, -5880
196939, -105, 945, -217, -43190, -56350, -22260
196959, -104, 961, -221, -49070, -73640, -42560
196979, -103, 975, -228, -51590, -88970, -62230
196999, -102, 1001, -236, -55720, -99960, -75460
197019, -104, 1033, -247, -63700, -106050, -80150
197039, -104, 1042, -250, -72940, -108570, -79870
197059, -105, 1042, -252, -79660, -110250, -80640
197079, -103, 1036, -254, -82600, -112560, -85540
197099, -99, 1026, -254, -83370, -113820, -91280
197119, -93, 1019, -254, -83790, -110530, -91000
197139, -93, 1013, -255, -83090, -100870, -80780
197159, -94, 988, -247, -78680, -86380, -64190
197179, -94, 932, -230, -69510, -71680, -49700
197199, -90, 920, -229, -57960, -61040, -43820
197219, -88, 934, -237, -45990, -53970, -45010
197239, -85, 925, -234, -31990, -45220, -44170
197259, -84, 909, -227, -14140, -30520, -34020
197279, -88, 949, -236, 4760, -11340, -16240
197299, -95, 998, -244, 21700, 7770, 2730
197319, -97, 987, -240, 35840, 24080, 17920
197339, -94, 951, -231, 47110, 35770, 26460
197359, -90, 965, -237, 54950, 42840, 28700
197379, -93, 1010, -250, 61110, 49560, 31640
197399, -97, 1027, -251, 68110, 61320, 44590
197419, -104, 1023, -240, 75110, 78260, 67690
197439, -107, 1003, -233, 77980, 93030, 88830
197459, -106, 989, -230, 75250, 97650, 94710
197479, -103, 1033, -244, 70210, 91840, 70350
197499, -99, 1047, -247, 64890, 80780, 68180
197519, -103, 999, -231, 59220, 84000, 78820
197539, -105, 972, -218, 46830, 84210, 87430
197559, -108, 978, -219, 31570, 74900, 81130
197579, -107, 951, -213, 19110, 57190, 59990
197599, -102, 921, -207, 10500, 36960, 34370
197619, -106, 932, -205, 2450, 20440, 16100
197639, 1365, 1882, -1830, -25060, -178850, 24080
197659, 206, -327, -1929, -156520, -668780, -529340
197679, -834, 650, 13, -267050, -32270, -39200
197699, -173, 978, -585, 30730, 35770, 111650
197719, -59, 672, -672, 62650, -97860, 49490
197739, 115, 1112, -831, -10430, -167790, -24710
197759, 85, 848, -526, -32060, -106680, -25340
197779, -56, 897, -328, -77000, -41510, -17220
197799, -134, 956, -154, -90650, -54740, -35420
197819, -241, 961, 89, -115640, -87150, -52430
197839, -267, 1007, 186, -107100, -73430, -33880
197859, -303, 1014, 237, -68320, -35560, -13720
197879, -402, 1065, 221, -43470, -17640, -3780
197899, -457, 1060, 205, -40670, -38290, -4970
197919, -306, 999, 51, -64400, -94010, -9660
197939, -411, 1029, 126, -68460, -113750, -10990
197959, -486, 1083, 130, -59150, -92470, -5110
197979, -365, 1067, 141, -95830, -139860, -16450
197999, -186, 973, 210, -176330, -238700, -43400
198019, -163, 958, 321, -210700, -262500, -39830
198039, -200, 953, 419, -215460, -234430, -36050
198059, -110, 670, 388, -240170, -227570, -41230
198079, 90, 741, 568, -277760, -222460, -53550
198099, -151, 710, 716, -251440, -141610, -46550
198119, -162, 646, 795, -195440, -59360, 3640
198139, -217, 532, 936, -163660, -46200, 41300
198159, -34, 503, 848, -164360, -95410, 47460
198179, -59, 512, 854, -154840, -120120, 38360
198199, -78, 481, 860, -123620, -64820, 47600
198219, -114, 534, 814, -82040, -10570, 82390
198239, 10, 330, 751, -75460, -18410, 87430
198259, -148, 172, 526, -104650, -46480, 90440
198279, -81, 486, 935, -111230, -57400, 99960
198299, 39, 523, 894, -58940, -36890, 86100
198319, 141, 422, 830, -12950, -8890, 61670
198339, 153, 410, 840, -18550, 17990, 72030
198359, -21, 278, 963, -20370, 41230, 52150
198379, 8, 402, 1016, -25900, 18410, 36890
198399, 43, 326, 994, -26670, 3430, 37240
198419, 42, 326, 1080, -17360, 7910, 43470
198439, 26, 283, 1098, -5530, 11550, 37940
198459, 1407, 1247, 1694, 44450, -37170, 19530
198479, 253, 464, 1125, 81760, -111440, 12180
198499, -88, 276, 968, -39550, 37800, 4760
198519, 29, 365, 1082, -6160, 21560, 21700
198539, 84, 358, 1065, 18690, 5530, 21630
198559, 121, 366, 1035, -560, -10080, 5600
198579, 106, 333, 1055, -15610, -22260, -5670
198599, 185, 32, 218, -6300, -19950, -770
