T [ms],AccX [mg],AccY [mg],AccZ [mg],GyroX [mdps],GyroY [mdps],GyroZ [mdps]
204993, -90, 787, 828, 68810, 46130, -22820
205013, 248, 613, 894, 91420, 41440, -12460
205033, 227, 571, 854, 44100, 15750, 16030
205053, 232, 526, 911, 4060, 8470, -4480
205073, 226, 439, 922, -13930, 11550, -2520
205093, 276, 443, 889, -420, 15190, 11130
205113, 338, 432, 865, 26880, 10080, 24150
205133, 439, 399, 819, 52500, 15050, 26810
205153, 335, 505, 786, 85260, 42980, 14350
205173, 281, 596, 752, 127330, 95410, 1190
205193, 217, 708, 670, 161420, 128450, 210
205213, 123, 825, 625, 170240, 151760, -2870
205233, -27, 920, 628, 162260, 168420, -13930
205253, -30, 991, 581, 147420, 169470, -16870
205273, -48, 976, 582, 123410, 144620, -17500
205293, -227, 1015, 650, 81970, 132160, -36960
205313, -311, 1024, 671, 38990, 150430, -65660
205333, -407, 888, 743, 18900, 132020, -78540
205353, -380, 716, 701, 6440, 100310, -64540
205373, -255, 745, 606, 30590, 73500, -14280
205393, -182, 894, 517, 92680, 27930, 44730
205413, -105, 894, 455, 131460, 8540, 78540
205433, -76, 896, 428, 133070, 9380, 89460
205453, -61, 942, 352, 135100, -10010, 56070
205473, -81, 935, 325, 133420, -1680, 60900
205493, -156, 912, 139, 141190, 17220, 64190
205513, -141, 966, 64, 120960, 104160, 23100
205533, -150, 1010, 233, 50750, 275800, -54810
205553, -159, 985, 281, 22890, 346570, -81620
205573, -194, 895, 394, -16030, 363230, -42980
205593, -362, 911, 353, 34580, 289870, 17220
205613, -213, 1108, 82, 244650, 1470, 62300
205633, -194, 842, 296, 254380, -13650, 6580
205653, -381, 772, 47, 255710, 4690, -62440
205673, 30, 729, -332, 351120, -75390, 13230
205693, -319, 987, -188, 458360, -103530, 72520
205713, -116, 1041, -391, 149380, 89460, 119070
205733, -24, 961, -405, 86310, 44380, 113890
205753, -80, 985, -402, 66570, 46410, 113400
205773, -59, 915, -314, 60970, 55860, 127120
205793, -27, 827, -309, 84140, 73430, 170380
205813, -79, 782, -460, 142940, 83860, 215250
205833, 323, 910, -635, 192640, 20860, 221550
205853, 299, 687, -612, 221130, -100380, 197050
205873, 495, 604, -694, 184870, -120260, 165340
205893, 507, 531, -968, 159040, -79310, 129430
205913, 50, 535, -767, 164920, 32340, 140980
205933, 174, 399, -763, 233520, 62300, 171850
205953, 218, 366, -776, 227290, -4340, 157780
205973, 295, 294, -888, 188230, -31850, 147070
205993, 340, 246, -925, 146090, -15680, 144340
206013, 311, 136, -936, 122010, -3780, 152250
206033, 324, 36, -965, 134680, -24500, 155260
206053, 312, 1, -1038, 140630, -32060, 130830
206073, 352, 4, -977, 130060, -22680, 85470
206093, 371, -44, -853, 108710, -22260, 39200
206113, 341, -47, -788, 77630, -19530, 13370
206133, 302, -59, -771, 59640, -19250, 3220
206153, 326, -102, -812, 67270, -34090, -1260
206173, 419, 8, -806, 87640, -55860, -8400
206193, 500, 30, -879, 110180, -46620, -19460
206213, 288, -104, -742, 153580, -22190, 22190
206233, 59, -238, -572, 243600, -18900, 115850
206253, -9, -201, -389, 292040, -39690, 160160
206273, -148, 243, -300, 258300, -50120, 101360
206293, 632, 968, -416, 154070, -72380, -80220
206313, 48, 143, -9, -106330, -58310, -77280
206333, -1, 22, 19, -224770, -32130, 140630
206353, -25, -6, -10, -242340, -61670, 163520
206373, -32, 11, -1, -231770, -69790, 166880
206393, -53, 35, 13, -226940, -68180, 165200
206413, -122, 201, 39, -248500, -85680, 161070
206433, -396, 1997, -305, -387170, -166530, 119000
206453, -201, 1997, -1682, -1238650, -476070, -75180
206473, 111, 1997, -1389, -1612800, -530320, 93310
206493, -653, 1953, -19, 226380, -143220, 478520
206513, -272, 1997, -1236, 525070, -100520, 346990
206533, -7, 1696, -1335, -1400560, -389410, 133210
206553, -8, 1460, -609, -1093680, -309400, 361900
206573, -142, 1667, 27, 381290, -90160, 460250
206593, -301, 1997, -368, 452830, -69930, 396760
206613, -451, 1997, -1052, -617890, -228900, 401660
206633, -70, 1241, -814, -1314670, -339430, 599200
206653, -113, 1995, -597, -428470, -305690, 683270
206673, -190, 1997, -299, 779380, -316400, 351680
206693, -266, 1475, -510, 352520, -468090, 98840
206713, -297, 387, -304, -603680, -489650, 315770
206733, -179, 47, -134, -715400, -441700, 564340
206753, -127, -44, -70, -453530, -427420, 585270
206773, -95, -75, -40, -231210, -408450, 537180
206793, -72, -90, -22, -72100, -390180, 468230
206813, -68, -87, -6, 47740, -378560, 381920
206833, -86, -70, 12, 132510, -377090, 282170
206853, -166, -1, 78, 169610, -396410, 167720
206873, -564, 763, 382, 132020, -456260, 21000
206893, -568, 1997, -1027, -180250, -654500, -252560
206913, -169, 1997, -1997, -1397410, -1096620, -675850
206933, 195, 1960, -1471, -2238250, -1105300, -320670
206953, -760, 1966, 352, -742420, -324940, 867440
206973, -17, 1997, -1505, 1822450, 338800, 1106420
206993, 410, 1848, -1923, -97370, -308070, -232330
207013, -173, 1922, -1062, -2138850, -516670, -606060
207033, -586, 1744, -273, -678580, 358190, 389620
207053, -534, 445, 572, 964320, 1037890, 1014580
207073, -212, 1243, 22, 503650, 893690, 612920
207093, -13, 1929, -635, -626500, 94780, -667380
207113, 100, 1988, -1330, -1243690, -210350, -1392160
207133, -806, 1997, -965, -1005550, 190120, -1219120
207153, -864, 632, -444, -80430, 1082060, -42280
207173, -439, -139, -107, -357910, 1276870, 239120
207193, -445, 57, -163, 79590, 899990, -588700
207213, -433, 147, -159, 464380, 762370, -847840
207233, -396, 217, -177, 635460, 681240, -825860
207253, -363, 487, -160, 742700, 587720, -754110
207273, -193, 1012, 335, 670950, 479990, -608230
207293, -43, 283, -135, -199220, 307860, -297220
207313, -33, 287, -214, -1061410, 182350, -37940
207333, -106, 1126, -397, -1217860, 113120, -24150
207353, -59, 1774, -931, -1354290, 52220, -17430
207373, 7, 1717, -900, -1205260, 74830, 46130
207393, -310, 1997, -526, 56420, 219240, -8400
207413, -118, 1997, -594, 627060, 141120, -256620
207433, 61, 1997, -994, -674380, -114240, -467040
207453, -1, 1247, -758, -1215200, -43050, -339080
207473, -309, 1446, -362, -191590, 205940, -179760
207493, -261, 1747, -54, 452970, 244230, -239890
207513, -57, 1997, -515, -35280, 16800, -489720
207533, 45, 1636, -858, -863450, -161700, -674100
207553, -91, 1491, -705, -810950, 7770, -522480
207573, -287, 1401, -220, 112000, 351050, -187950
207593, -233, 1030, 1, 519470, 448700, -81480
207613, -140, 741, -77, 119280, 229530, -328090
207633, 0, 419, -98, -359940, -1960, -625870
207653, -29, 305, -139, -494410, -33530, -722610
207673, -19, 253, -184, -406070, 59010, -685370
207693, -51, 228, -147, -222250, 210350, -553630
207713, -84, 229, -106, -21700, 376880, -340550
207733, -119, 358, -96, 75880, 492030, -123480
207753, -202, 734, -163, 60690, 555100, 70490
207773, -414, 1180, -356, -108570, 588770, 294980
207793, -547, 1557, -722, -540820, 587090, 584080
207813, -238, 824, -477, -1139950, 465500, 772660
207833, -222, 1850, -685, -1236340, 207270, 595490
207853, -67, 1997, -654, -202510, -29050, 1470
207873, -364, 1997, -1089, 552300, -132790, -341880
207893, -556, 1742, -985, -379470, -4830, 148890
207913, -180, 1209, -434, -1304660, 94850, 712950
207933, -175, 1997, -388, -619010, -51170, 520380
207953, -117, 1997, -713, 282590, -263970, -34090
207973, -438, 1997, -907, -10010, -351820, -118020
207993, -467, 1227, -703, -799680, -183750, 454230
208013, -233, 1026, -198, -92470, -113540, 728140
208033, -215, 1484, -244, 298690, -385210, 122640
208053, -84, 1305, -436, -28350, -577570, -144200
208073, -121, 644, -313, -373100, -502180, 124320
208093, -128, 148, -103, -313880, -339710, 465360
208113, -102, 43, -42, -121940, -261310, 577430
208133, -80, -1, -11, 15190, -238700, 561820
208153, -75, -30, 8, 124810, -229530, 504770
208173, -100, -48, 32, 210350, -244790, 401730
208193, -193, 4, 73, 267750, -310100, 220990
208213, -362, 345, 35, 229460, -473970, -88760
208233, -461, 1202, -150, -29260, -731080, -491470
208253, -269, 1997, -782, -549920, -945630, -780010
208273, 61, 1790, -1138, -1129800, -926870, -684530
208293, -87, 1929, -684, -812700, -461580, 15050
208313, -440, 1967, 196, 301420, 58240, 613270
208333, -329, 1997, -610, 267820, -79730, 268240
208353, 51, 1997, -1503, -1062110, -629090, -490560
208373, -2, 1997, -867, -1334340, -519050, -348460
208393, -354, 1972, -87, -4480, 29890, 292530
208413, -275, 1997, -438, 328370, 171360, 413630
208433, -19, 1997, -1105, -849660, -235760, -87010
208453, 59, 1582, -825, -1379070, -409500, -317520
208473, -156, 1745, -316, -344400, -84840, -20160
208493, -247, 1301, 13, 459900, 214550, 293090
208513, -151, 901, -190, 15190, 145320, 264670
208533, -65, 571, -305, -758170, -124600, 12670
208553, 6, 284, -303, -1031800, -263340, -136640
208573, 26, 78, -215, -883610, -233870, -168350
208593, -5, 43, -110, -468790, -99610, -162610
208613, -27, 52, -61, -49070, 55580, -141470
208633, -39, 65, -39, 176190, 153020, -118790
208653, -43, 80, -38, 270340, 199360, -97440
208673, -40, 200, -112, 310170, 220780, -72170
208693, -21, 961, -521, 339780, 241500, -37100
208713, -255, 1997, -652, 441770, 322490, 62440
208733, -625, 1936, -276, 736330, 593880, 407470
208753, -364, 1629, -212, 745640, 841190, 740040
208773, -104, 1997, -1013, 315490, 572110, 286300
208793, -85, 1997, -988, 191520, 89880, -521850
208813, -594, 1997, -516, 456960, 220640, -292530
208833, -372, 1196, -296, 404810, 744520, 655830
208853, -218, 1641, -497, 2310, 816480, 820050
208873, -71, 1997, -708, 540680, 289100, -197540
208893, -350, 1997, -706, 264180, 442610, 194110
208913, -361, 1502, -589, -438200, 618590, 703710
208933, -179, 1028, -426, -450730, 529060, 608230
208953, -157, 1220, -321, 193620, 378070, 195720
208973, -130, 1092, -111, 487480, 278530, -33600
208993, -106, 573, -51, 181370, 207480, -22680
209013, -62, 207, -38, -236390, 154000, 61390
209033, -49, 129, -50, -427350, 108710, 99120
209053, -42, 85, -62, -466060, 83510, 112350
209073, -35, 81, -106, -440440, 75810, 114030
209093, -21, 64, -173, -332430, 92470, 96040
209113, -59, 140, -179, -60340, 151270, 48300
209133, -115, 321, -208, 340900, 228690, -27160
209153, -228, 822, -287, 674030, 263270, -108430
209173, -327, 1518, -225, 895440, 212730, -230160
209193, -211, 1997, -331, 771120, 28420, -413070
209213, -35, 1947, -707, 152810, -157080, -482930
209233, -71, 1878, -778, -176190, -88900, -259490
209253, -293, 1997, -514, 398020, 140490, -70
209273, -320, 1997, -367, 966350, 159810, -87500
209293, -63, 1997, -767, 586670, -119770, -434350
209313, -34, 1997, -859, -17640, -233870, -480900
209333, -221, 1997, -513, 291200, 1890, -137200
209353, -290, 1997, -235, 853300, 159390, 26880
209373, -146, 1871, -452, 647990, -21280, -206710
209393, -54, 1414, -608, 59640, -249970, -446810
209413, -61, 1127, -402, 910, -195790, -338520
209433, -117, 847, -139, 418040, -490, -89250
209453, -131, 527, -2, 654570, 88970, 29610
209473, -111, 289, 33, 533470, 23100, -14140
209493, -91, 176, 19, 281540, -106120, -115710
209513, -79, 147, 1, 85330, -212240, -188580
209533, -68, 176, -23, -31500, -276850, -221690
209553, -51, 354, -82, -106470, -309960, -223790
209573, -26, 818, -272, -168980, -316120, -186270
209593, -171, 962, -355, -246260, -265440, -28140
209613, -395, 1140, -377, -329070, -90510, 388430
209633, -447, 1142, -224, -355950, 117740, 857430
209653, -348, 1137, -124, -337680, 196350, 1067850
209673, -229, 1997, -555, -257880, 11970, 776090
209693, 178, 1997, -980, -223370, -393330, 73010
209713, -327, 1997, -817, -317240, -543130, -170380
209733, -644, 1989, -256, 44870, 253190, 1165360
209753, -315, 1877, -350, -135380, 22750, 780080
209773, -60, 1997, -848, -309960, -448630, 19670
209793, 30, 1997, -793, -94500, -412650, 52710
209813, -304, 1997, -334, 330820, 8890, 681660
209833, -366, 1247, -46, 279930, 206640, 964950
209853, -223, 827, -152, -93030, -38850, 596260
209873, -128, 671, -275, -245560, -365820, 90090
209893, -49, 506, -273, -107660, -471450, -125440
209913, -15, 374, -205, 152320, -400400, -93310
209933, -13, 278, -115, 376670, -283220, 24780
209953, -31, 286, -56, 480480, -200410, 121590
209973, -70, 421, -14, 477050, -162400, 183890
209993, -138, 538, 32, 360500, -165130, 231280
210013, -185, 462, -3, 79590, -225540, 262990
210033, -247, 624, -108, -266770, -337960, 258650
210053, -310, 1068, -351, -543690, -468300, 223930
210073, -253, 1212, -526, -746830, -601300, 168700
210093, -158, 1385, -592, -686140, -671230, 118300
210113, -120, 1959, -555, -255430, -618800, 117600
210133, -275, 1997, -522, 93240, -483210, 246400
210153, -482, 1997, -656, -130410, -355670, 534800
210173, -450, 1687, -650, -581420, -349650, 763980
210193, -188, 1912, -621, -487410, -477750, 674870
210213, -119, 1997, -644, 31570, -594230, 396060
210233, -240, 1997, -541, 230860, -564830, 369810
210253, -314, 1532, -353, 74830, -395220, 688800
210273, -243, 1122, -263, 16870, -304360, 864640
210293, -201, 1131, -343, 157570, -417410, 607600
210313, -138, 1045, -393, 265440, -603960, 203910
210333, -78, 758, -309, 255710, -674590, 36120
210353, -64, 458, -180, 267680, -602420, 120820
210373, -76, 275, -83, 336630, -495390, 245560
210393, -99, 256, -42, 379540, -435610, 284200
210413, -135, 325, -26, 353780, -432180, 251160
210433, -162, 432, -59, 248500, -468370, 192710
210453, -185, 580, -151, 52150, -528430, 145670
210473, -205, 863, -323, -190470, -580440, 152810
210493, -204, 974, -444, -393050, -587370, 251020
210513, -181, 1009, -359, -440230, -514360, 461720
210533, -199, 1254, -230, -187040, -367500, 685440
210553, -242, 1674, -253, 202720, -257460, 717570
210573, -205, 1969, -563, 291410, -301420, 521360
210593, -130, 1843, -689, -230370, -400960, 462280
210613, -155, 1997, -483, 195230, -208250, 680890
210633, -214, 1997, -309, 611800, -108150, 630140
210653, -162, 1997, -506, 342790, -231840, 355390
210673, -68, 1738, -650, -64960, -323470, 242690
210693, -53, 1573, -491, 165060, -208460, 354760
210713, -124, 1491, -254, 623560, -67340, 401450
210733, -148, 1257, -153, 616000, -75250, 286860
210753, -111, 948, -211, 222950, -186830, 127470
210773, -61, 648, -240, -59010, -252490, 51100
210793, -37, 438, -199, -27510, -225680, 48300
210813, -41, 319, -125, 164430, -157290, 51380
210833, -54, 323, -82, 319130, -101920, 35000
210853, -83, 498, -48, 360080, -79660, 7840
210873, -101, 649, -37, 266140, -91910, -16450
210893, -91, 569, -77, 5530, -135100, -23240
210913, -102, 800, -216, -303100, -178150, -6650
210933, -98, 1008, -382, -515760, -193130, 28700
210953, -94, 1079, -419, -575400, -164500, 87920
210973, -123, 1315, -356, -385910, -92750, 131460
210993, -161, 1724, -320, -122850, -43470, 97160
211013, -134, 1997, -539, -163800, -75040, 7490
211033, -95, 1970, -723, -535150, -131110, -24430
211053, -114, 1855, -633, -731500, -99680, 65870
211073, -165, 1997, -447, -449750, 3010, 159320
211093, -146, 1997, -452, -165060, 38080, 113960
211113, -79, 1867, -606, -353220, -37730, -15540
211133, -62, 1428, -554, -658770, -77770, -49420
211153, -101, 1231, -369, -570850, 1330, 35070
211173, -127, 1111, -226, -251790, 104790, 99190
211193, -106, 961, -188, -118020, 125510, 61670
211213, -66, 758, -208, -235200, 67830, -43890
211233, -32, 517, -207, -387520, 15680, -131740
211253, -25, 346, -171, -405440, 25900, -156380
211273, -35, 253, -136, -295050, 89180, -134820
211293, -47, 252, -126, -140910, 170520, -98070
211313, -66, 408, -168, -6300, 245770, -61740
211333, -101, 745, -259, 98770, 313460, -18550
211353, -174, 1045, -288, 185220, 390320, 60690
211373, -216, 1120, -282, 227780, 483070, 190680
211393, -202, 1158, -310, 176400, 546350, 292180
211413, -168, 1400, -412, 87290, 533400, 262150
211433, -163, 1817, -515, 87920, 479080, 132160
211453, -251, 1997, -560, 136500, 559580, 218820
211473, -295, 1927, -587, -94710, 645890, 406350
211493, -233, 1808, -588, -253120, 638960, 400330
211513, -205, 1993, -555, -123130, 584500, 232120
211533, -199, 1996, -486, -23310, 560490, 130200
211553, -174, 1635, -505, -251160, 550480, 142730
211573, -142, 1275, -495, -514500, 530040, 144340
211593, -143, 1079, -412, -479640, 526330, 92470
211613, -163, 973, -294, -258860, 544320, 25760
211633, -155, 829, -196, -132160, 541730, -42700
211653, -122, 644, -152, -175210, 497280, -128170
211673, -90, 458, -142, -269570, 441910, -219240
211693, -79, 371, -155, -300860, 417130, -282240
211713, -86, 388, -185, -251020, 435400, -296450
211733, -104, 496, -230, -152180, 490420, -252350
211753, -146, 640, -259, -48650, 573650, -139720
211773, -215, 848, -299, -280, 668220, 29890
211793, -272, 990, -348, -53690, 746200, 205240
211813, -265, 1032, -384, -185990, 778470, 310100
211833, -228, 1159, -410, -272370, 748720, 272090
211853, -220, 1502, -429, -202090, 688660, 122710
211873, -203, 1820, -460, -108150, 646310, 4970
211893, -172, 1814, -579, -254450, 623490, -1890
211913, -146, 1657, -647, -579110, 595350, 19600
211933, -183, 1671, -572, -666610, 576590, -23240
211953, -221, 1766, -417, -400120, 587580, -109270
211973, -172, 1710, -364, -208390, 567210, -210070
211993, -101, 1514, -466, -351400, 475160, -345240
212013, -114, 1328, -491, -519680, 406420, -460320
212033, -175, 1164, -386, -405440, 449820, -459340
212053, -204, 937, -244, -145320, 546210, -366240
212073, -189, 707, -153, -11900, 583590, -305270
212093, -159, 532, -120, -27300, 536690, -340970
212113, -134, 481, -129, -65100, 463890, -417690
212133, -113, 530, -146, -64260, 419370, -455700
212153, -99, 593, -162, -46620, 416010, -419020
212173, -108, 580, -159, -59150, 446180, -301700
212193, -137, 664, -201, -138600, 489790, -131950
212213, -159, 829, -280, -273980, 515970, 21700
212233, -155, 898, -325, -425320, 509810, 114870
212253, -155, 1013, -313, -510790, 471170, 115640
212273, -168, 1339, -302, -411390, 407260, -4270
212293, -141, 1702, -328, -140420, 263060, -296660
212313, -96, 1830, -491, -392980, 218330, -279930
212333, -93, 1660, -577, -646170, 222600, -194880
212353, -153, 1625, -509, -517440, 258020, -165200
212373, -203, 1849, -379, -154490, 260050, -245350
212393, -153, 1896, -349, -78470, 182490, -372330
212413, -67, 1590, -449, -347690, 99890, -432110
212433, -68, 1250, -444, -489230, 114310, -377440
212453, -116, 1073, -329, -294840, 198450, -281330
212473, -152, 980, -198, -24430, 252700, -232960
212493, -144, 896, -129, 58660, 224070, -256760
212513, -102, 777, -137, -43960, 143850, -314580
212533, -61, 668, -164, -179200, 80990, -341530
212553, -46, 567, -189, -226380, 76020, -300860
212573, -47, 494, -173, -168770, 122920, -199640
212593, -66, 495, -149, -63910, 190540, -69930
212613, -98, 683, -170, 17990, 248570, 57540
212633, -154, 950, -201, 35980, 288330, 178780
212653, -189, 1037, -219, -34020, 304780, 288400
212673, -171, 1067, -262, -165340, 269780, 325640
212693, -135, 1190, -332, -243530, 187460, 261450
212713, -117, 1456, -394, -187530, 118580, 173810
212733, -168, 1755, -421, -75810, 116060, 182350
212753, -240, 1801, -433, -79450, 164640, 316750
212773, -228, 1692, -450, -234570, 185010, 452060
212793, -166, 1707, -467, -336070, 122500, 437570
212813, -132, 1832, -454, -221970, 26390, 298830
212833, -154, 1724, -401, -65030, -21070, 218890
212853, -191, 1419, -354, -96600, -10710, 293090
212873, -179, 1100, -288, -227150, -2100, 407960
212893, -145, 910, -227, -242620, -38080, 423780
212913, -122, 833, -186, -115640, -108290, 329000
212933, -110, 773, -163, 19530, -183120, 207200
212953, -100, 652, -141, 64820, -240940, 137480
212973, -101, 526, -119, 38430, -274470, 137340
212993, -107, 442, -106, 6230, -292180, 171710
213013, -127, 450, -105, 6440, -310240, 194320
213033, -165, 571, -119, 35000, -342930, 175560
213053, -207, 790, -171, 62090, -402640, 100520
213073, -214, 1047, -275, 39760, -496090, -25270
213093, -181, 1232, -395, -66010, -597310, -142170
213113, -162, 1292, -438, -207270, -650090, -161700
213133, -195, 1388, -394, -266000, -619570, -50260
213153, -267, 1602, -381, -181370, -519260, 202300
213173, -297, 1850, -511, -319060, -574140, 202930
213193, -268, 1839, -641, -491260, -639590, 215390
213213, -225, 1738, -597, -418320, -629860, 307230
213233, -231, 1702, -457, -145880, -569450, 409150
213253, -266, 1607, -396, -34440, -541450, 462350
213273, -278, 1312, -399, -141470, -559790, 501340
213293, -237, 1015, -356, -181090, -584010, 535150
213313, -191, 848, -295, -19110, -600250, 509320
213333, -176, 797, -253, 193550, -623910, 407610
213353, -178, 758, -235, 280350, -660240, 291690
213373, -178, 651, -223, 231490, -691180, 227920
213393, -176, 536, -203, 145950, -702730, 223090
213413, -184, 477, -190, 96110, -702590, 236250
213433, -198, 540, -193, 78610, -706580, 232260
213453, -220, 738, -237, 49700, -721560, 210630
213473, -226, 912, -316, -28910, -739060, 203280
213493, -219, 980, -369, -132930, -734300, 256410
213513, -210, 1012, -367, -166740, -687260, 376250
213533, -212, 1116, -338, -76370, -612220, 503020
213553, -225, 1295, -324, 65100, -550900, 564830
213573, -234, 1453, -377, 129010, -536550, 546840
213593, -198, 1515, -458, 96460, -554820, 502390
213613, -160, 1546, -471, 112700, -555800, 480620
213633, -158, 1635, -438, 274750, -525420, 452130
213653, -167, 1611, -405, 434280, -507010, 370230
213673, -157, 1422, -400, 411390, -523740, 269920
213693, -142, 1184, -379, 294490, -540610, 210490
213713, -147, 1069, -340, 273000, -536620, 170170
213733, -157, 1030, -302, 337260, -535010, 97440
213753, -149, 978, -280, 349300, -552650, 5180
213773, -131, 861, -262, 254800, -570780, -48930
213793, -113, 714, -233, 124460, -562380, -35280
213813, -103, 594, -199, 45220, -525770, 20090
213833, -97, 582, -182, 32970, -479990, 72240
213853, -97, 683, -193, 48860, -439740, 103320
213873, -95, 822, -224, 52640, -404950, 126560
213893, -101, 889, -251, 27860, -364700, 169680
213913, -113, 932, -264, -6580, -309050, 247030
213933, -119, 1011, -266, -7490, -243250, 332430
213953, -125, 1148, -280, 44450, -184730, 382130
213973, -122, 1348, -321, 123270, -148680, 373380
213993, -115, 1526, -380, 178150, -136430, 324660
214013, -117, 1627, -424, 167930, -89040, 310870
214033, -129, 1645, -414, 196000, -29470, 357210
214053, -138, 1627, -379, 253960, 11900, 354550
214073, -126, 1550, -358, 274750, 8890, 281470
214093, -102, 1446, -358, 239260, -9730, 203140
214113, -91, 1332, -347, 203700, 1260, 183890
214133, -99, 1182, -295, 207200, 43400, 209020
214153, -106, 1031, -233, 223090, 80430, 218610
214173, -104, 866, -180, 209790, 83510, 176680
214193, -89, 708, -147, 163240, 58170, 99050
214213, -74, 588, -129, 108920, 29820, 24430
214233, -63, 537, -124, 66920, 16310, -24360
214253, -66, 583, -134, 37730, 18550, -47740
214273, -80, 691, -155, 11690, 29750, -54740
214293, -92, 764, -165, -23520, 40040, -59220
214313, -102, 821, -180, -70210, 38220, -81200
214333, -110, 923, -213, -114100, 19390, -135800
214353, -112, 1078, -263, -139440, -7560, -215250
214373, -106, 1269, -319, -144550, -25060, -288330
214393, -104, 1432, -362, -143850, -17010, -318220
214413, -115, 1523, -380, -155260, 16590, -296940
214433, -132, 1567, -392, -177520, 51170, -268870
214453, -144, 1627, -409, -181930, 60830, -292250
214473, -133, 1639, -414, -149730, 50190, -365120
214493, -116, 1532, -387, -110390, 51730, -416500
214513, -111, 1372, -355, -102410, 84420, -398020
214533, -116, 1223, -322, -113050, 130900, -346010
214553, -123, 1106, -293, -100870, 166530, -318570
214573, -121, 1027, -266, -54040, 185780, -326900
214593, -107, 927, -236, -3290, 199640, -338870
214613, -95, 793, -203, 15470, 219590, -322840
214633, -84, 651, -174, -2660, 248360, -276290
214653, -82, 569, -161, -35630, 280840, -218330
214673, -90, 632, -180, -63770, 312270, -165340
214693, -102, 788, -222, -85120, 342580, -117110
214713, -118, 838, -239, -113820, 373660, -63490
214733, -129, 859, -248, -163240, 402290, -7000
214753, -133, 927, -264, -221200, 415030, 21490
214773, -130, 1078, -298, -263620, 405370, 1960
214793, -126, 1248, -340, -281400, 381990, -53270
214813, -123, 1392, -382, -292110, 360150, -111230
214833, -122, 1462, -416, -324590, 351050, -142380
214853, -131, 1474, -429, -376180, 353500, -149660
214873, -144, 1498, -414, -348740, 355950, -216860
214893, -146, 1499, -384, -272580, 345730, -286510
214913, -132, 1406, -358, -244300, 333340, -340760
214933, -122, 1273, -350, -261240, 330960, -362390
214953, -122, 1138, -337, -251650, 347130, -358400
214973, -135, 1015, -300, -182700, 376390, -343000
214993, -143, 922, -255, -92750, 402920, -326480
215013, -139, 827, -214, -35770, 415380, -313040
215033, -129, 734, -187, -27930, 415100, -299670
215053, -114, 662, -179, -49420, 413140, -278320
215073, -108, 632, -181, -76300, 418950, -241640
215093, -107, 682, -200, -100940, 435750, -186620
215113, -123, 783, -233, -130830, 460670, -115080
215133, -138, 842, -252, -176540, 485660, -38150
215153, -149, 887, -261, -230860, 495460, 11970
215173, -153, 959, -268, -265650, 477120, 1330
215193, -145, 1114, -284, -262150, 433650, -69650
215213, -131, 1289, -317, -246190, 382340, -159810
215233, -120, 1410, -365, -270620, 344050, -214900
215253, -120, 1430, -406, -343140, 330400, -214690
215273, -134, 1403, -408, -391230, 334670, -194250
215293, -158, 1419, -369, -341810, 336560, -207760
215313, -157, 1431, -331, -229180, 318080, -270760
215333, -130, 1368, -319, -168000, 280210, -344540
215353, -109, 1245, -328, -198030, 248010, -377720
215373, -108, 1106, -319, -234290, 246470, -356510
215393, -121, 992, -278, -196070, 272090, -306460
215413, -131, 892, -217, -99820, 298760, -262360
215433, -125, 817, -176, -19040, 302820, -242550
215453, -108, 758, -162, 1330, 282030, -240870
215473, -90, 726, -171, -27370, 253330, -235900
215493, -79, 733, -192, -68810, 236460, -206570
215513, -86, 774, -214, -96110, 241850, -143150
215533, -107, 832, -221, -104160, 266770, -50470
215553, -132, 905, -223, -105770, 296310, 49350
215573, -144, 972, -225, -118790, 308840, 122430
215593, -138, 1058, -246, -149380, 288120, 140630
215613, -120, 1181, -300, -186620, 236390, 103670
215633, -115, 1343, -355, -216650, 180390, 54950
215653, -133, 1434, -384, -239190, 153510, 54530
215673, -159, 1443, -381, -263480, 162960, 120540
215693, -162, 1420, -364, -291130, 176680, 197820
215713, -142, 1412, -358, -302820, 154630, 207130
215733, -115, 1373, -355, -255220, 37800, 65450
215753, -109, 1297, -348, -248430, 18480, 68460
215773, -120, 1173, -315, -253960, 28350, 132440
215793, -128, 1037, -270, -242130, 32480, 185570
215813, -124, 920, -228, -199570, 7700, 177450
215833, -108, 821, -197, -140630, -40950, 118090
215853, -94, 759, -184, -89810, -91210, 55300
215873, -83, 708, -178, -55090, -124390, 26880
215893, -78, 670, -174, -24920, -136430, 36890
215913, -84, 669, -173, 15470, -135450, 64470
215933, -100, 724, -177, 70420, -135520, 80710
215953, -125, 824, -185, 130060, -152110, 60270
215973, -141, 927, -205, 169540, -195930, -5810
215993, -140, 1038, -253, 167650, -260190, -95620
216013, -130, 1141, -313, 137900, -315490, -162190
216033, -128, 1230, -344, 125020, -335650, -173390
216053, -149, 1336, -337, 150290, -326620, -145460
216073, -182, 1433, -330, 169470, -325780, -130690
216093, -187, 1489, -363, 118860, -362740, -162610
216113, -167, 1436, -400, 13160, -419230, -215530
216133, -145, 1315, -385, -51590, -447510, -234360
216153, -139, 1246, -333, -30170, -433510, -205100
216173, -143, 1228, -298, 4200, -407540, -156730
216193, -142, 1169, -290, -28630, -395710, -110740
216213, -135, 1053, -290, -115080, -397460, -70140
216233, -122, 913, -275, -172340, -398650, -35070
216253, -108, 802, -241, -148470, -390670, -8680
216273, -99, 725, -205, -72310, -376040, 9870
216293, -94, 716, -194, -3570, -360080, 29820
216313, -91, 750, -203, 30660, -343420, 61390
216333, -95, 784, -216, 43050, -322140, 107730
216353, -102, 792, -214, 62370, -295820, 157290
216373, -114, 827, -215, 108430, -274330, 181650
216393, -124, 930, -238, 172130, -273140, 155120
216413, -125, 1079, -286, 223790, -296660, 82740
216433, -117, 1205, -338, 244160, -329140, 3220
216453, -115, 1278, -361, 245000, -343840, -37030
216473, -137, 1320, -343, 257460, -329140, -27300
216493, -164, 1360, -331, 282660, -308350, -11550
216513, -170, 1396, -357, 279930, -318570, -42980
216533, -149, 1381, -388, 224980, -363790, -120190
216553, -128, 1302, -379, 157220, -403830, -184660
216573, -123, 1217, -330, 150570, -370160, -154070
216593, -128, 1132, -272, 138110, -344400, -119910
216613, -126, 1041, -251, 68740, -340620, -106960
216633, -111, 930, -247, -15120, -344960, -103880
216653, -94, 830, -241, -54950, -336840, -92750
216673, -80, 762, -226, -35910, -309120, -66080
216693, -70, 737, -204, 11410, -267820, -24990
216713, -72, 759, -191, 47110, -222670, 27440
216733, -80, 820, -196, 49980, -180320, 87220
216753, -91, 869, -213, 27510, -143150, 147280
216773, -97, 890, -229, 10990, -112070, 193270
216793, -97, 940, -247, 33180, -88690, 209650
216813, -96, 1048, -266, 94710, -70980, 198240
216833, -97, 1187, -286, 158760, -53690, 182350
216853, -105, 1298, -306, 182630, -31010, 189840
216873, -116, 1339, -324, 161420, -1820, 225610
216893, -124, 1341, -329, 137480, 26320, 260680
216913, -124, 1347, -324, 154280, 41650, 258790
216933, -117, 1343, -309, 200130, 40180, 216790
216953, -108, 1295, -295, 218400, 31220, 172200
216973, -101, 1208, -285, 185290, 30240, 161280
216993, -104, 1110, -267, 139790, 41650, 179130
217013, -107, 1005, -234, 125440, 55020, 190750
217033, -106, 924, -199, 140280, 55580, 169890
217053, -99, 853, -173, 148330, 38080, 119910
217073, -88, 796, -163, 123830, 10430, 65170
217093, -81, 763, -168, 73780, -14070, 27440
217113, -83, 754, -173, 23030, -27580, 11900
217133, -90, 796, -182, -9520, -31570, 8190
217153, -101, 853, -187, -21910, -34300, -490
217173, -106, 902, -192, -29190, -46060, -27720
217193, -106, 967, -213, -52150, -70560, -73780
217213, -100, 1063, -254, -96670, -98980, -121940
217233, -97, 1161, -301, -146510, -116130, -150220
217253, -105, 1230, -313, -176400, -112070, -148610
217273, -120, 1285, -313, -177590, -93100, -130060
217293, -121, 1327, -315, -172060, -79800, -123550
217313, -114, 1353, -337, -188860, -85680, -145810
217333, -96, 1341, -359, -224630, -100240, -181300
217353, -92, 1282, -346, -243740, -98000, -195580
217373, -98, 1203, -307, -225260, -69230, -174440
217393, -101, 1118, -274, -192220, -31850, -140280
217413, -96, 1031, -259, -178500, -9380, -125370
217433, -80, 931, -251, -179340, 560, -151550
217453, -71, 861, -238, -148960, 20090, -149100
217473, -70, 804, -222, -101220, 55300, -122010
217493, -73, 770, -203, -57890, 95900, -80290
217513, -79, 754, -194, -32130, 131180, -39060
217533, -86, 777, -200, -20090, 157080, -7840
217553, -92, 846, -224, -7700, 176330, 13650
217573, -96, 908, -242, 16310, 196350, 34300
217593, -105, 989, -256, 46410, 220920, 63140
217613, -118, 1078, -268, 63560, 248080, 102480
217633, -130, 1156, -286, 54040, 271810, 145740
217653, -140, 1241, -315, 25830, 287000, 180180
217673, -144, 1314, -340, 3150, 294420, 197540
217693, -146, 1361, -346, -140, 298620, 201180
217713, -148, 1357, -333, 70, 300860, 200130
217733, -147, 1296, -317, -22890, 297360, 198590
217753, -139, 1238, -313, -66150, 286720, 194390
217773, -135, 1185, -303, -98770, 273700, 185710
217793, -131, 1123, -282, -100730, 261800, 172410
217813, -125, 1039, -247, -85330, 248360, 153370
217833, -116, 944, -218, -79170, 227920, 126420
217853, -105, 857, -199, -88410, 200480, 92960
217873, -95, 785, -188, -96180, 172550, 58940
217893, -90, 746, -181, -85190, 150500, 29820
217913, -89, 726, -174, -52640, 135660, 6580
217933, -92, 732, -167, -9030, 124250, -13790
217953, -98, 785, -176, 31220, 110810, -35560
217973, -105, 867, -195, 60830, 92540, -61250
217993, -106, 922, -217, 82880, 70490, -89600
218013, -110, 994, -242, 105980, 49070, -115500
218033, -113, 1093, -267, 136990, 32970, -133000
218053, -120, 1183, -284, 172830, 23730, -139230
218073, -128, 1249, -298, 201110, 16870, -138390
218093, -131, 1291, -309, 211540, 5320, -140350
218113, -129, 1314, -323, 208390, -12880, -150780
218133, -123, 1311, -326, 206920, -31850, -164430
218153, -121, 1276, -311, 214620, -43820, -169470
218173, -119, 1227, -289, 220850, -48230, -161000
218193, -112, 1154, -269, 209860, -51170, -145880
218213, -107, 1076, -254, 182140, -57820, -133700
218233, -100, 993, -235, 152740, -66920, -126910
218253, -92, 918, -215, 133070, -73850, -120400
218273, -87, 857, -192, 119140, -75810, -107310
218293, -81, 811, -177, 67690, -68530, -54460
218313, -80, 792, -178, 26530, -62510, -19530
218333, -82, 821, -190, -14490, -55090, 17150
218353, -88, 871, -209, -46410, -45500, 54180
218373, -96, 903, -218, -66150, -34300, 89320
218393, -101, 948, -227, -79660, -25340, 117600
218413, -108, 1037, -249, -96880, -21280, 138250
218433, -115, 1125, -279, -121450, -20020, 157500
218453, -121, 1193, -306, -144970, -17010, 180950
218473, -128, 1239, -318, -154490, -11130, 206360
218493, -132, 1265, -319, -147980, -6650, 224630
218513, -133, 1276, -317, -138460, -9100, 228970
218533, -132, 1264, -314, -138110, -18970, 223020
218553, -126, 1224, -313, -143290, -29820, 217840
218573, -124, 1165, -299, -138950, -35700, 219520
218593, -122, 1103, -278, -118440, -38080, 222110
218613, -119, 1030, -247, -92190, -43960, 215040
218633, -113, 962, -229, -73710, -58030, 194390
218653, -105, 889, -215, -64260, -77840, 165480
218673, -98, 822, -199, -54600, -97160, 136430
218693, -94, 767, -186, -36890, -112000, 111300
218713, -91, 737, -176, -12460, -123550, 87920
218733, -96, 747, -173, 10500, -135800, 61180
218753, -102, 801, -184, 24150, -152320, 27790
218773, -108, 871, -206, 25480, -173320, -11830
218793, -112, 936, -228, 17780, -195580, -53620
218813, -114, 1014, -254, 8820, -214690, -91910
218833, -120, 1112, -276, 4130, -227430, -122220
218853, -125, 1181, -291, 280, -234150, -143290
218873, -128, 1234, -302, -12600, -237580, -156310
218893, -128, 1265, -316, -38570, -240380, -164710
218913, -126, 1282, -327, -68320, -242690, -172410
218933, -121, 1281, -330, -88060, -242060, -180320
218953, -114, 1248, -319, -94220, -235620, -184100
218973, -107, 1193, -304, -96670, -221970, -177660
218993, -101, 1136, -291, -105210, -202650, -160510
219013, -98, 1080, -282, -116620, -181020, -139370
219033, -92, 1007, -262, -118860, -159180, -121310
219053, -83, 903, -235, -106750, -137130, -107800
219073, -75, 827, -214, -85820, -114240, -95830
219093, -71, 785, -204, -64820, -90160, -80570
219113, -68, 781, -208, -46130, -63630, -58590
219133, -71, 818, -218, -25970, -33460, -28910
219153, -81, 867, -224, 32760, 35840, 42840
219173, -89, 905, -225, 65170, 67060, 71890
219193, -96, 955, -232, 87710, 88620, 87290
219213, -99, 1024, -251, 98140, 102060, 92960
219233, -100, 1094, -270, 103670, 115150, 100520
219253, -106, 1163, -291, 111650, 134750, 119630
219273, -115, 1207, -297, 121170, 159950, 148400
219293, -124, 1237, -294, 124040, 182140, 173600
219313, -130, 1252, -297, 115570, 192640, 181370
219333, -125, 1252, -300, 100310, 191310, 171640
219353, -119, 1220, -296, 85890, 187110, 158690
219373, -118, 1165, -279, 73360, 187600, 155960
219393, -120, 1109, -261, 58240, 191100, 161630
219413, -119, 1051, -243, 39200, 189840, 161980
219433, -115, 975, -223, 21210, 178010, 145180
219453, -106, 891, -202, 8820, 156660, 111370
219473, -96, 814, -180, 1260, 131950, 71680
219493, -90, 786, -175, -4760, 109830, 37310
219513, -91, 805, -179, -11200, 92050, 11900
219533, -97, 835, -186, -16940, 76440, -8610
219553, -100, 834, -186, -18620, 59710, -31710
219573, -104, 863, -191, -14700, 38850, -63700
219593, -107, 937, -211, -7490, 13720, -104440
219613, -108, 1011, -235, -1400, -11690, -145250
219633, -109, 1073, -252, 1120, -31010, -174930
219653, -114, 1121, -267, 1540, -41720, -188650
219673, -122, 1161, -275, 3220, -46760, -193270
219693, -127, 1200, -286, 7700, -52710, -201390
219713, -125, 1230, -293, 12180, -63420, -219240
219733, -120, 1245, -302, 13580, -75670, -240100
219753, -112, 1231, -305, 11970, -80990, -248570
219773, -108, 1171, -285, 10430, -74620, -236810
219793, -107, 1084, -260, 10920, -61110, -213360
219813, -103, 1032, -247, 11620, -49420, -193830
219833, -95, 993, -241, 10990, -42980, -183470
219853, -86, 941, -233, 9730, -36750, -173320
219873, -81, 883, -217, 9170, -24360, -151900
219893, -77, 844, -207, 9380, -4690, -117040
219913, -80, 838, -202, 8820, 18690, -74410
219933, -83, 864, -211, 5530, 41720, -30800
219953, -89, 895, -216, -490, 62300, 9660
219973, -93, 925, -223, -7700, 80010, 45920
219993, -100, 974, -235, -15260, 94780, 77770
220013, -107, 1050, -253, -34720, 116550, 131670
220033, -114, 1121, -273, -49420, 125440, 157640
220053, -123, 1179, -289, -65100, 132720, 180740
220073, -127, 1208, -294, -77560, 135380, 194880
220093, -129, 1210, -294, -85120, 131320, 196350
220113, -126, 1201, -290, -90650, 122220, 189350
220133, -123, 1194, -291, -97790, 112560, 183540
220153, -121, 1160, -284, -104720, 105420, 184030
220173, -120, 1104, -267, -105490, 98770, 185080
220193, -118, 1030, -245, -97300, 87500, 176400
220213, -110, 966, -223, -83580, 69230, 154000
220233, -103, 913, -211, -69440, 46830, 124040
220253, -97, 874, -204, -56420, 25480, 96530
220273, -92, 829, -192, -42560, 8260, 76020
220293, -92, 789, -182, -25550, -5880, 59570
220313, -94, 779, -178, -4900, -20440, 39970
220333, -97, 805, -183, 17290, -38220, 12670
220353, -98, 827, -187, 36960, -59500, -21560
220373, -98, 867, -200, 50680, -82110, -57400
220393, -102, 937, -220, 57890, -102060, -87780
220413, -109, 1002, -239, 62510, -116970, -108920
220433, -119, 1064, -254, 68460, -127750, -123830
220453, -123, 1121, -266, 73430, -138810, -140000
220473, -126, 1172, -279, 70770, -153370, -161630
220493, -123, 1208, -297, 57610, -169050, -183260
220513, -118, 1224, -305, 39900, -178500, -194110
220533, -117, 1220, -302, 27230, -177590, -189140
220553, -118, 1194, -291, 20230, -169680, -174300
220573, -113, 1146, -278, 11270, -162330, -161630
220593, -102, 1072, -263, -4550, -159320, -156870
220613, -92, 1003, -254, -22330, -156170, -153510
220633, -84, 961, -244, -32550, -145040, -139580
220653, -80, 928, -233, -31640, -123130, -110040
220673, -80, 899, -220, -24850, -94290, -69160
220693, -83, 860, -208, -20300, -65730, -27440
220713, -83, 844, -206, -20580, -43400, 4690
220733, -80, 882, -222, -21280, -27930, 24500
220753, -82, 956, -243, -15190, -13370, 40460
220773, -89, 993, -246, 280, 7560, 64890
220793, -100, 1012, -243, 19040, 36050, 101920
220813, -105, 1025, -242, 29260, 63700, 140140
220833, -108, 1046, -251, 26950, 81060, 163730
220853, -107, 1085, -265, 25130, 88060, 161630
220873, -108, 1164, -283, 37170, 93800, 161770
220893, -117, 1202, -285, 44730, 105980, 175350
220913, -121, 1146, -265, 35980, 116200, 191100
220933, -117, 1054, -244, 17850, 113680, 188440
220953, -114, 1041, -245, 8540, 99540, 164080
220973, -104, 1053, -248, 14630, 84840, 135590
220993, -103, 1021, -233, 24500, 77070, 119910
221013, -102, 949, -209, 21910, 73150, 116760
221033, -101, 880, -192, 6020, 65170, 111510
221053, -97, 834, -185, -8540, 49350, 92190
221073, -96, 817, -184, -9240, 28000, 58590
221093, -93, 829, -185, 3570, 5880, 19110
221113, -94, 857, -188, 17080, -13090, -14910
221133, -95, 897, -198, 18410, -27580, -36540
221153, -97, 912, -204, 5880, -38570, -47530
221173, -101, 916, -209, -9240, -49280, -57890
221193, -108, 963, -224, -13230, -62930, -78750
221213, -113, 1034, -243, -4480, -80220, -111720
221233, -112, 1098, -256, 4550, -97860, -146370
221253, -108, 1126, -267, -140, -109970, -167370
221273, -105, 1112, -268, -18480, -112560, -168000
221293, -108, 1102, -268, -35700, -108010, -157640
221313, -112, 1122, -269, -39620, -103110, -152950
221333, -108, 1111, -263, -34930, -102690, -160720
221353, -98, 1042, -247, -36890, -104370, -171010
221373, -89, 992, -244, -51800, -100520, -168490
221393, -84, 976, -245, -66920, -86380, -148610
221413, 1998, 1997, 1373, -66850, -63350, -118160
221433, -1987, 354, 1722, -17500, 417480, -326620
