T [ms],AccX [mg],AccY [mg],AccZ [mg],GyroX [mdps],GyroY [mdps],GyroZ [mdps]
252706, -194, 628, 831, 38570, 18130, -11550
252726, -211, 636, 916, 42910, -6510, -15820
252746, -204, 661, 782, 44730, -45710, -21280
252766, -134, 690, 757, 59220, -60550, -28000
252786, -92, 706, 755, 66010, -62720, -30870
252806, -57, 708, 796, 57890, -64400, -28210
252826, -124, 685, 791, 37800, -97510, -21770
252846, -162, 666, 745, 36330, -135030, -20440
252866, -72, 687, 669, 38010, -148890, -19390
252886, -2, 699, 661, 35210, -147910, -19810
252906, 1, 677, 791, 29260, -131530, -22260
252926, -83, 623, 775, 30730, -126000, -15820
252946, -75, 692, 654, 54530, -134470, -8820
252966, -27, 724, 602, 80360, -102760, 6160
252986, 61, 723, 663, 59360, -42700, 16450
253006, 94, 760, 595, 45080, -52990, 12110
253026, 94, 751, 539, 45640, -81900, -3850
253046, 105, 729, 665, 40250, -78820, -13790
253066, 123, 733, 635, 46200, -85260, -21350
253086, 118, 738, 514, 90160, -118790, -35140
253106, 125, 647, 414, 180950, -176820, -71470
253126, 126, 779, 216, 329910, -271950, -133490
253146, -58, 758, -26, 496300, -348250, -223160
253166, -267, 976, -313, 606340, -383460, -305340
253186, -291, 1413, -553, 677180, -444080, -390950
253206, -274, 1176, -618, 388920, -306180, -364490
253226, -151, 982, -444, -180040, 109200, -62650
253246, -179, 398, -290, -512190, 510300, 179550
253266, -162, 122, -155, -425460, 642460, 284130
253286, -153, 75, -103, -197050, 653730, 213990
253306, -157, 96, -86, 22330, 638260, 94080
253326, -175, 180, -83, 195440, 613480, -3850
253346, -220, 480, -118, 332290, 575820, -79730
253366, -242, 995, -73, 435890, 512680, -153370
253386, -164, 1126, -61, 408170, 394660, -242340
253406, -86, 914, -184, 82320, 237230, -291270
253426, -60, 1018, -382, -342230, 136220, -239680
253446, -99, 1099, -456, -490350, 148750, -105140
253466, -207, 1418, -368, -264600, 263550, 76230
253486, -276, 1785, -206, 164500, 379820, 184100
253506, -191, 1997, -383, 353850, 328580, 74340
253526, -34, 1997, -761, 48160, 85960, -218820
253546, -87, 1997, -746, -332780, -51940, -327530
253566, -238, 1997, -369, -142730, 115850, -40880
253586, -226, 1793, -239, 266840, 302540, 233100
253606, -101, 1704, -459, 184660, 189210, 91700
253626, -47, 1560, -560, -151270, -56980, -215670
253646, -92, 1501, -405, -183470, -91000, -226380
253666, -192, 1331, -175, 97090, 77280, 50050
253686, -205, 1115, -104, 111720, 137970, 252070
253706, -151, 1106, -238, -122850, -68670, 6580
253726, -78, 1117, -382, -173670, -214060, -184520
253746, -46, 1079, -343, 9170, -197190, -158970
253766, -80, 1027, -216, 233870, -89950, 21000
253786, -137, 925, -83, 277690, -22820, 183960
253806, -169, 781, -64, 120330, -64190, 215180
253826, -147, 623, -106, -87780, -189700, 120820
253846, -120, 416, -114, -181510, -315490, -7980
253866, -98, 171, -59, -135030, -385700, -94360
253886, -88, 46, -13, -50330, -413910, -133420
253906, -85, 22, -6, -11690, -436380, -152460
253926, -89, 18, -16, -13300, -463470, -162330
253946, -93, 20, -27, -24640, -488950, -167370
253966, -95, 28, -39, -32340, -508620, -173390
253986, -86, 44, -68, -33950, -521290, -181230
254006, -48, 67, -136, -17150, -519400, -184380
254026, 14, 120, -230, 53480, -479710, -165690
254046, 15, 249, -197, 245210, -362320, -92260
254066, 16, 493, -220, 522060, -193270, 38010
254086, -62, 1091, -192, 709660, -50190, 199920
254106, -290, 1325, -20, 721770, 88480, 441630
254126, -404, 876, -43, 325290, 142450, 697900
254146, -324, 642, -153, -339920, -51730, 672000
254166, -295, 663, -343, -679910, -398020, 341880
254186, -275, 982, -582, -496930, -672210, -97510
254206, -46, 1610, -749, 48650, -771190, -456960
254226, -18, 1997, -479, 589470, -673470, -455700
254246, -383, 1975, -227, 715330, -405860, 34230
254266, -477, 1421, -204, 245630, -159110, 655900
254286, -488, 1451, -481, -384790, -271250, 738990
254306, -404, 1997, -1047, -475020, -706440, 136570
254326, 72, 1997, -1061, -55720, -1034040, -518280
254346, -358, 1997, -481, 368270, -874230, -350420
254366, -565, 1962, -209, 384860, -384650, 513240
254386, -490, 1812, -646, -198730, -313950, 795760
254406, -219, 1635, -925, -558600, -798840, 142590
254426, -23, 1321, -645, -289520, -1074080, -352100
254446, -37, 1036, -261, 232050, -900480, -194880
254466, -161, 828, -48, 579460, -592760, 234640
254486, -304, 787, 1, 539000, -403550, 540890
254506, -400, 799, -120, 244160, -396410, 624540
254526, -411, 769, -305, -139300, -547610, 519610
254546, -377, 776, -470, -408240, -978040, 8540
254566, -285, 802, -527, -152530, -1053570, -207480
254586, -185, 799, -473, 160510, -1008210, -282240
254606, -103, 728, -347, 341460, -886200, -178360
254626, -85, 542, -194, 363930, -736680, 49770
254646, -113, 296, -75, 295540, -614320, 280140
254666, -126, 153, -32, 214410, -552090, 420560
254686, -135, 93, -15, 163240, -537460, 472500
254706, -144, 83, -11, 135520, -546420, 476280
254726, -157, 85, -17, 110390, -568330, 458080
254746, -169, 87, -28, 78470, -599340, 429100
254766, -185, 120, -53, 42140, -636300, 393890
254786, -214, 239, -93, 6580, -674800, 355740
254806, -247, 439, -172, -34790, -715330, 314510
254826, -253, 546, -242, -79450, -759220, 264530
254846, -235, 471, -258, -78540, -794780, 199920
254866, -207, 327, -218, -9030, -815710, 112490
254886, -191, 354, -219, 65450, -822430, 22960
254906, -169, 499, -247, 88200, -815010, -33530
254926, -129, 652, -287, 71260, -780570, -27090
254946, -109, 749, -285, 51800, -700350, 70280
254966, -138, 838, -243, 64890, -574490, 248780
254986, -199, 942, -193, 98420, -446530, 426160
255006, -257, 1036, -187, 92540, -383180, 499170
255026, -261, 1217, -323, -3290, -436310, 402990
255046, -192, 1436, -525, -131880, -568470, 190190
255066, -94, 1719, -640, -110530, -643580, 28000
255086, -122, 1997, -546, 159180, -569800, 41510
255106, -234, 1997, -472, 390740, -420630, 187250
255126, -244, 1997, -627, 198870, -359590, 289450
255146, -164, 1997, -805, -171780, -447790, 201110
255166, -105, 1997, -782, -93800, -545790, 1470
255186, -146, 1997, -548, 262850, -521920, -70840
255206, -194, 1713, -446, 202230, -421750, 75040
255226, -171, 1192, -364, -129710, -375270, 201460
255246, -148, 998, -317, -184450, -424690, 110390
255266, -106, 990, -296, -18410, -488390, -78820
255286, -59, 1278, -367, 78750, -498820, -172900
255306, -99, 1450, -391, 53480, -438550, -101430
255326, -184, 1329, -313, -23730, -305480, 131600
255346, -195, 1054, -216, -87010, -168490, 377300
255366, -154, 863, -209, -96950, -163100, 369390
255386, -104, 779, -234, -69650, -287280, -121240
255406, -46, 641, -228, -41440, -377790, -159250
255426, -26, 435, -160, 5950, -286440, -58310
255446, -26, 231, -77, 74130, -178290, 66640
255466, -31, 142, -35, 121590, -103180, 135380
255486, -37, 155, -28, 140000, -63000, 149660
255506, -54, 237, -35, 138320, -40740, 141680
255526, -62, 258, -34, 118300, -29680, 124670
255546, -65, 251, -35, 81830, -29680, 97580
255566, -54, 185, -28, 41860, -37590, 58940
255586, -44, 124, -21, 16590, -45920, 12180
255606, -39, 111, -23, 7700, -47950, -32340
255626, -47, 199, -44, 8960, -43260, -70560
255646, -55, 375, -99, 12110, -32200, -98700
255666, -55, 520, -143, 16940, -8260, -103530
255686, -61, 555, -151, 28420, 37940, -67200
255706, -77, 529, -133, 42490, 96600, -6720
255726, -93, 530, -123, 47950, 141820, 32480
255746, -101, 542, -123, 43960, 159110, 23940
255766, -96, 508, -119, 38710, 151200, -29190
255786, -91, 537, -130, 42140, 132160, -103950
255806, -93, 753, -187, 51380, 121240, -162540
255826, -96, 1020, -257, 49350, 131180, -173950
255846, -111, 1085, -284, 19530, 170590, -117670
255866, -127, 1017, -269, -32200, 227850, -20720
255886, -142, 1070, -277, -66640, 265230, 29050
255906, -152, 1326, -329, -46550, 263270, -15330
255926, -145, 1713, -427, 7910, 234780, -117530
255946, -122, 1997, -532, 20090, 211470, -189980
255966, -138, 1997, -602, -59780, 232050, -153300
255986, -167, 1997, -600, -143290, 293720, -48230
256006, -176, 1997, -609, -87570, 332920, -24500
256026, -133, 1997, -665, 52640, 309330, -129080
256046, -119, 1997, -688, 58450, 276430, -209440
256066, -157, 1993, -568, -57050, 312620, -142380
256086, -173, 1658, -413, -52080, 379400, -53620
256106, -149, 1351, -300, 72030, 387170, -92680
256126, -113, 1030, -233, 111930, 340060, -199010
256146, -89, 793, -206, 29190, 303310, -252910
256166, -91, 851, -253, -68530, 307860, -232960
256186, -120, 1057, -315, -115850, 341670, -179340
256206, -158, 1164, -321, -112350, 391300, -113050
256226, -175, 1231, -311, -79030, 438550, -58240
256246, -161, 1124, -273, -12110, 404530, -168840
256266, -123, 745, -176, 8610, 359170, -262500
256286, -99, 431, -99, 8610, 345380, -290010
256306, -84, 163, -33, -2100, 349440, -281610
256326, -73, 59, -10, -8190, 350210, -279160
256346, -72, 52, -8, -3220, 346710, -284060
256366, -81, 114, -19, 3360, 343490, -282660
256386, -98, 438, -89, 2730, 340060, -272160
256406, -89, 702, -184, -36120, 346290, -222740
256426, -103, 447, -150, -138390, 384790, -92540
256446, -96, 246, -126, -205170, 427700, 16030
256466, -92, 113, -86, -191870, 441630, 27510
256486, -89, 77, -72, -121590, 443870, -13020
256506, -91, 78, -68, -41300, 439670, -65310
256526, -111, 174, -77, 37100, 436100, -106820
256546, -139, 446, -122, 105490, 428260, -137900
256566, -150, 668, -118, 150360, 411600, -158200
256586, -116, 454, -50, 106120, 382830, -151480
256606, -84, 286, -36, -37520, 335720, -138180
256626, -94, 495, -108, -161350, 283710, -148750
256646, -93, 807, -247, -220150, 245770, -169750
256666, -106, 1013, -335, -205870, 240170, -172760
256686, -152, 1195, -323, -82810, 289450, -122990
256706, -185, 1207, -241, 64610, 347760, -57750
256726, -175, 1152, -217, 90230, 336840, -67970
256746, -144, 1269, -310, 770, 245000, -185430
256766, -114, 1475, -433, -55930, 157290, -311010
256786, -129, 1722, -471, 6370, 158620, -314580
256806, -179, 1793, -412, 119700, 245280, -170870
256826, -191, 1780, -396, 134890, 317590, -21980
256846, -159, 1922, -494, 48510, 283990, -43470
256866, -115, 1997, -573, 21770, 189840, -194320
256886, -132, 1997, -527, 84350, 167650, -235760
256906, -172, 1840, -439, 68110, 238280, -85610
256926, -154, 1651, -420, -69930, 281330, 40950
256946, -128, 1678, -419, -131530, 232190, -23030
256966, -106, 1685, -387, -51870, 168070, -151340
256986, -114, 1540, -362, -18480, 159530, -162610
257006, -121, 1302, -348, -133840, 188510, -64330
257026, -116, 1176, -322, -265580, 202860, 10010
257046, -116, 1190, -290, -253680, 186480, -13230
257066, -112, 1236, -259, -124740, 159530, -90020
257086, -94, 1191, -259, -44940, 137130, -140070
257106, -85, 976, -256, -213990, 120890, -82950
257126, -78, 702, -203, -247310, 131740, -37450
257146, -75, 440, -120, -180110, 141890, -24990
257166, -69, 320, -73, -90930, 139160, -45150
257186, -80, 480, -107, -30170, 125930, -74900
257206, -89, 757, -166, 4060, 113540, -89950
257226, -80, 618, -121, 5950, 114940, -62930
257246, -67, 337, -57, -28770, 121450, -10290
257266, -59, 217, -31, -59080, 112770, 12950
257286, -53, 163, -22, -63140, 94290, 5320
257306, -48, 138, -20, -47670, 75600, -13440
257326, -45, 142, -24, -18970, 61740, -31010
257346, -44, 164, -32, 14910, 54530, -39130
257366, -40, 181, -35, 51030, 55440, -32410
257386, -41, 192, -34, 83790, 62510, -10640
257406, -45, 204, -31, 105630, 72450, 24290
257426, -51, 225, -27, 112700, 81760, 67130
257446, -57, 207, -21, 105070, 87500, 111090
257466, -61, 182, -13, 87080, 87010, 147280
257486, -65, 190, -14, 66850, 76860, 164780
257506, -88, 352, -52, 48790, 58030, 163030
257526, -117, 711, -136, 31010, 30520, 144270
257546, -127, 978, -220, 3640, -9030, 106260
257566, -119, 1017, -248, -23380, -50610, 63280
257586, -106, 916, -219, -25130, -77980, 34650
257606, -119, 1144, -275, -10080, -89180, 27790
257626, -131, 1410, -346, -13580, -94360, 38150
257646, -144, 1709, -433, -41930, -96600, 63000
257666, -152, 1948, -495, -56210, -101780, 77070
257686, -183, 1997, -726, -16590, -122430, 43890
257706, -923, 1997, 942, 56980, -141890, -9730
257726, -153, 1122, -236, 231770, -131460, 169610
257746, -133, 173, 42, 236880, -243670, 432670
257766, -355, 808, 93, 100730, -354970, 253400
257786, -442, 1997, -636, -80920, -499310, 92610
257806, -59, 1903, -1345, -689570, -785400, -164640
257826, 54, 1997, -1261, -1158080, -925540, -208040
257846, -289, 1997, -333, 114940, -606830, 89250
257866, -336, 1997, -1044, 1261540, -366800, 177800
257886, -177, 731, -559, -217910, -522550, 112770
257906, -177, 342, -346, -1080100, -628390, 189000
257926, -114, 85, -201, -9100, -611590, 38710
257946, -204, 116, -193, 718060, -648690, -259140
257966, -235, 579, -198, 618240, -769300, -447860
257986, -85, 1498, -431, 321790, -784000, -317870
258006, -384, 742, -272, -249130, -570990, 381780
258026, -416, 824, -335, -420350, -347830, 997990
258046, -313, 407, -64, -155330, -305620, 1077230
258066, -492, 641, -138, 273560, -528780, 490490
258086, -491, 815, -305, 229810, -959840, -373520
258106, -274, 1034, -512, -164010, -1146250, -682430
258126, -19, 642, -491, -430500, -1043910, -509740
258146, -39, -25, -98, -238420, -701680, -34300
258166, -26, -28, -59, 25620, -472500, 201600
258186, -18, -22, -42, 127960, -396620, 203980
258206, -17, -27, -27, 198030, -337610, 194460
258226, -20, -3, -38, 240100, -296590, 170940
258246, -34, 41, -49, 273280, -263970, 135030
258266, -108, 392, -99, 313740, -235760, 83510
258286, -164, 1055, -189, 341460, -241290, -11550
258306, -130, 1214, -266, 250740, -304920, -135590
258326, -92, 825, -253, -17500, -352170, -150080
258346, -68, 502, -195, -204330, -317660, -42490
258366, -65, 557, -230, -155400, -242900, 46480
258386, -115, 862, -255, 19250, -178150, 52990
258406, -164, 1276, -239, 220780, -139510, -4130
258426, -149, 1467, -274, 267680, -158970, -95690
258446, -96, 1134, -298, 58730, -209090, -143360
258466, -62, 760, -264, -176330, -209860, -93380
258486, -66, 731, -265, -177450, -151410, -17570
258506, -111, 1090, -296, -6020, -80360, 11340
258526, -148, 1339, -249, 198240, -24290, -1960
258546, -136, 1392, -257, 265020, -13230, -38710
258566, -97, 1358, -366, 92400, -48230, -70140
258586, -79, 1350, -444, -119700, -62090, -50890
258606, -120, 1470, -401, -102760, -770, 27650
258626, -162, 1561, -294, 129710, 105630, 114520
258646, -160, 1603, -293, 274820, 165200, 141820
258666, -113, 1653, -437, 131740, 128800, 89600
258686, -89, 1738, -547, -109690, 65800, 24850
258706, -137, 1920, -504, -124810, 85750, 42420
258726, -197, 1945, -360, 88970, 187180, 137480
258746, -161, 1818, -394, 173250, 239960, 177800
258766, -95, 1645, -478, -19320, 160160, 57820
258786, -84, 1523, -446, -172830, 58310, -110390
258806, -120, 1389, -317, -66360, 71680, -142870
258826, -144, 1205, -214, 78120, 178780, -27510
258846, -127, 1106, -237, -59430, 123200, -107380
258866, -103, 1040, -281, -126840, 53410, -240100
258886, -86, 933, -266, -51730, 41790, -314580
258906, -83, 763, -188, 63770, 85750, -293020
258926, -84, 584, -112, 103600, 133700, -229040
258946, -81, 487, -75, 58660, 153650, -183540
258966, -76, 431, -66, -22120, 147980, -173110
258986, -64, 343, -64, -95620, 132090, -187040
259006, -56, 225, -48, -131670, 120050, -212310
259026, -46, 131, -31, -126000, 119910, -235760
259046, -43, 75, -16, -98840, 128870, -253400
259066, -41, 51, -9, -68460, 142380, -263060
259086, -42, 39, -3, -42770, 155890, -266280
259106, -39, 41, -2, -24010, 167370, -264320
259126, -43, 77, -8, -12040, 176820, -256060
259146, -53, 284, -42, -8820, 186060, -235830
259166, -68, 785, -165, -32410, 200200, -179130
259186, -152, 858, -260, -162960, 241360, -9380
259206, -207, 835, -340, -401310, 318430, 270340
259226, -160, 617, -278, -551040, 347130, 416850
259246, -139, 396, -149, -408310, 306390, 306110
259266, -137, 369, -97, -15750, 225540, -1680
259286, -157, 911, -117, 236880, 149100, -244440
259306, -94, 1504, -246, 227570, 86870, -335930
259326, -94, 1574, -503, -84140, 51380, -264880
259346, -113, 1303, -569, -522760, 116550, 19390
259366, -152, 1236, -427, -586880, 246960, 303100
259386, -239, 1761, -312, -135940, 335020, 326410
259406, -160, 1997, -401, 327670, 288470, 76720
259426, -31, 1997, -912, 148540, 111090, -203140
259446, -114, 1997, -948, -484260, 64470, -144060
259466, -265, 1997, -511, -485730, 279860, 232610
259486, -200, 1997, -365, 153160, 431760, 346220
259506, -5, 1997, -653, 206920, 241220, -33180
259526, -53, 1394, -588, -330120, 34020, -318920
259546, -129, 840, -293, -428540, 159040, -115640
259566, -147, 383, -77, -90160, 383810, 182350
259586, -146, 350, -31, 116970, 471100, 262430
259606, -179, 647, -59, 119420, 433020, 179760
259626, -145, 1080, -233, 55650, 333270, 21630
259646, -61, 1391, -426, -12320, 185570, -215600
259666, -62, 1219, -383, -34160, 106890, -170730
259686, -143, 814, -210, 90650, 379050, 133140
259706, -163, 605, -134, 71330, 448770, 268240
259726, -153, 531, -111, 43190, 410410, 206080
259746, -132, 525, -109, 72940, 313810, 28140
259766, -113, 616, -139, 145390, 219030, -147350
259786, -83, 702, -154, 192010, 169120, -220010
259806, -66, 586, -114, 169750, 171080, -166320
259826, -66, 384, -68, 95060, 200060, -46200
259846, -64, 236, -37, 19180, 219870, 49980
259866, -64, 195, -37, -23660, 219030, 88410
259886, -74, 255, -67, -32970, 208180, 89040
259906, -80, 348, -104, -4620, 197470, 69020
259926, -92, 444, -119, 66360, 189840, 34790
259946, -104, 608, -132, 159740, 182910, -3290
259966, -115, 764, -127, 216300, 167930, -31500
259986, -105, 683, -93, 179130, 139230, -40250
260006, -81, 443, -65, 54880, 98840, -35140
260026, -66, 321, -63, -56490, 59010, -35210
260046, -54, 243, -64, -93450, 30870, -46270
260066, -53, 296, -96, -65940, 17290, -61530
260086, -70, 569, -178, 3430, 17850, -72590
260106, -95, 827, -201, 110250, 36820, -64400
260126, -125, 965, -163, 208320, 66220, -25340
260146, -151, 1089, -166, 187600, 65450, 11550
260166, -147, 1224, -257, 23170, 7350, -3500
260186, -125, 1381, -389, -165620, -84630, -78330
260206, -111, 1641, -486, -198240, -146720, -163590
260226, -129, 1997, -466, -31290, -135310, -184730
260246, -163, 1997, -466, 99960, -82110, -113190
260266, -155, 1997, -592, -48510, -62790, -21070
260286, -121, 1997, -715, -293090, -106330, -18760
260306, -109, 1997, -722, -228970, -147490, -94780
260326, -141, 1997, -627, 27580, -125650, -108010
260346, -136, 1997, -575, -31850, -77980, -3010
260366, -108, 1630, -466, -270410, -78260, 60200
260386, -95, 1287, -321, -205380, -113190, -2450
260406, -85, 862, -175, 10500, -125720, -67550
260426, -71, 445, -77, 61250, -117040, -53410
260446, -67, 487, -109, -18550, -111440, -2240
260466, -68, 928, -285, -89320, -115780, 35490
260486, -92, 1140, -345, -109900, -103880, 85960
260506, -142, 1151, -259, -44940, -32690, 209720
260526, -153, 878, -112, 197050, 50890, 276360
260546, -112, 494, -56, 156940, -57050, 92540
260566, -78, 262, -38, 70770, -162330, -60270
260586, -61, 201, -42, 22820, -213360, -124740
260606, -48, 277, -91, 14350, -225960, -137620
260626, -30, 378, -146, 42000, -204050, -107660
260646, -27, 241, -78, 117180, -139230, -23240
260666, -33, 168, -34, 193480, -73360, 60900
260686, -39, 124, -6, 226520, -44520, 96320
260706, -45, 98, 9, 226800, -43680, 97650
260726, -56, 121, 17, 205940, -61040, 79660
260746, -88, 246, 15, 164080, -93310, 48790
260766, -110, 401, -14, 80500, -145180, 5180
260786, -107, 468, -73, -64050, -215390, -44170
260806, -86, 467, -142, -214340, -274190, -75110
260826, -61, 420, -180, -280980, -289590, -72450
260846, -41, 400, -195, -217560, -252770, -43330
260866, -54, 588, -217, -48230, -179830, -5180
260886, -91, 942, -225, 152950, -96320, 36890
260906, -143, 1236, -190, 269150, -32340, 89250
260926, -171, 1320, -228, 161280, -26040, 132930
260946, -142, 1249, -344, -134820, -91490, 120470
260966, -94, 1159, -418, -314020, -167300, 55300
260986, -88, 1286, -382, -157500, -174790, -3290
261006, -118, 1557, -320, 151270, -118650, -5530
261026, -159, 1695, -324, 245000, -65380, 57610
261046, -160, 1701, -450, 19180, -59360, 140350
261066, -105, 1788, -554, -226170, -91910, 168350
261086, -126, 1997, -565, -120190, -116480, 108430
261106, -132, 1997, -520, 203280, -115220, 22820
261126, -148, 1997, -569, 199780, -106050, 32620
261146, -131, 1781, -532, -133980, -95130, 133700
261166, -126, 1671, -438, -204610, -90160, 170450
261186, -117, 1667, -341, 63000, -103040, 83230
261206, -103, 1502, -336, 181930, -131180, -2240
261226, -104, 1244, -349, 2380, -144340, 20370
261246, -102, 1040, -310, -179970, -124250, 111790
261266, -110, 975, -242, -139510, -93590, 162750
261286, -117, 1005, -193, 47460, -86730, 117530
261306, -102, 964, -181, 166040, -118230, 15680
261326, -84, 793, -177, 110810, -166110, -60760
261346, -70, 605, -160, -33320, -191100, -65660
261366, -68, 484, -142, -122640, -180740, -23310
261386, -71, 392, -104, -21420, -136430, 4270
261406, -75, 333, -69, 64330, -133560, -35840
261426, -75, 283, -40, 102970, -149170, -91840
261446, -69, 218, -21, 86940, -173530, -139720
261466, -59, 147, -9, 39550, -196070, -169190
261486, -49, 92, -4, -11550, -211120, -181720
261506, -38, 57, 0, -51730, -217910, -183820
261526, -32, 40, 0, -79870, -218330, -181300
261546, -25, 30, -1, -100380, -214480, -175770
261566, -22, 26, -1, -115780, -207410, -167860
261586, -19, 26, -6, -127260, -197610, -158410
261606, -16, 47, -24, -134260, -183750, -146510
261626, -2, 192, -117, -132090, -159810, -126420
261646, 43, 746, -430, -90370, -94290, -60760
261666, -170, 1123, -347, 127190, 129640, 210980
261686, -387, 1366, -170, 360710, 455770, 648970
261706, -338, 921, 67, 238630, 542850, 747320
261726, -253, 1234, -238, -109340, 203000, 191730
261746, -98, 1700, -717, -283990, -232400, -572320
261766, 67, 1997, -804, -126630, -241430, -699580
261786, -400, 1997, -567, 268730, 190330, -47320
261806, -669, 1737, -305, 290430, 656110, 760620
261826, -280, 1903, -501, -177590, 626990, 780570
261846, -9, 1997, -1234, -181440, 131530, -95130
261866, -253, 1997, -1099, 315630, -71190, -537110
261886, -629, 1997, -699, 194810, 366380, 282800
261906, -246, 1997, -605, -436730, 537110, 717290
261926, -67, 1997, -605, -64890, 91350, -73220
261946, -63, 1449, -320, 433370, -127750, -496930
261966, -127, 300, -54, 137060, 35070, -89810
261986, -97, 102, -51, -260400, 175700, 301140
262006, -109, 149, -93, -380240, 163940, 353150
262026, -134, 474, -332, -366380, 129360, 302890
262046, -301, 1108, -408, -126210, 68880, 94360
262066, -226, 1808, -318, 447300, -34230, -309260
262086, -83, 1419, -236, 725550, -147210, -547050
262106, -83, 466, -132, 278110, -147210, -325780
262126, -74, 87, -64, -311710, -52990, 73220
262146, -66, 97, -105, -487550, -25550, 223020
262166, -51, -46, -108, -446670, -40460, 201530
262186, -76, 43, -78, -284340, -43750, 115990
262206, -91, 77, -69, 55160, -33390, -62160
262226, -133, 185, -58, 336980, -45080, -247170
262246, -173, 575, -112, 463540, -117670, -413700
262266, -121, 753, -85, 363300, -179620, -446810
262286, -55, 241, -16, 111510, -204260, -352240
262306, -40, 118, 3, -73780, -196700, -239470
262326, -29, 139, -21, -143080, -191800, -186690
262346, -3, 455, -190, -179690, -174930, -131040
262366, -26, 504, -218, -166670, -84210, 29680
262386, -95, 530, -201, -76720, 88200, 298900
262406, -173, 774, -207, 23870, 230510, 488250
262426, -218, 747, -89, 100870, 298550, 537600
262446, -178, 498, -8, 112910, 213570, 340270
262466, -123, 390, -36, 46760, 2170, -35210
262486, -115, 986, -222, -41440, -149030, -284340
262506, -21, 1410, -465, -126490, -190470, -341600
262526, -81, 1386, -457, -147420, -69860, -124460
262546, -196, 1214, -301, -46270, 167440, 273420
262566, -220, 1195, -186, 36820, 283290, 442470
262586, -189, 1571, -302, 34090, 175560, 229110
262606, -66, 1997, -604, -41440, -41860, -150570
262626, -47, 1997, -751, -118720, -100940, -246120
262646, -229, 1997, -547, -57680, 107170, 106890
262666, -274, 1989, -363, 33040, 288890, 400610
262686, -140, 1997, -607, 7700, 130900, 113120
262706, 0, 1997, -727, -52150, -131880, -349860
262726, -108, 1938, -521, -39550, -79450, -271390
262746, -202, 1408, -271, 17640, 170170, 156730
262766, -183, 1147, -206, -15470, 244930, 293790
262786, -122, 1303, -330, -55370, 89460, 24640
262806, -34, 1587, -472, -25480, -77630, -282450
262826, -53, 1529, -422, 31220, -79380, -301280
262846, -148, 1244, -281, 61460, 81270, -14840
262866, -161, 909, -173, 13860, 224980, 261310
262886, -124, 678, -136, -52640, 213290, 257250
262906, -98, 577, -134, -35350, 91420, 33250
262926, -70, 521, -125, 40250, -16380, -182280
262946, -47, 474, -115, 94150, -52990, -261590
262966, -38, 357, -76, 107240, -32970, -220220
262986, -41, 215, -29, 93240, 14070, -115500
263006, -42, 130, -9, 66710, 57190, -11830
263026, -45, 119, -11, 42210, 77000, 47320
263046, -52, 140, -19, 25060, 79520, 70070
263066, -55, 139, -22, 18060, 75250, 73640
263086, -50, 101, -10, 26110, 68040, 60830
263106, -45, 69, 3, 64820, 40530, -2660
263126, -46, 76, 3, 74760, 21070, -37310
263146, -63, 160, -12, 76860, -140, -69370
263166, -82, 356, -58, 72520, -23730, -101990
263186, -80, 541, -107, 52360, -47250, -126630
263206, -74, 592, -124, 3360, -55090, -109690
263226, -82, 694, -168, -58590, -44170, -52850
263246, -95, 825, -213, -105980, -20650, 20160
263266, -117, 943, -237, -115710, 3640, 77140
263286, -134, 972, -216, -78120, 8050, 77070
263306, -113, 743, -153, -32200, -25130, 3010
263326, -84, 651, -136, -28210, -75390, -87360
263346, -77, 1118, -299, -62370, -103530, -122710
263366, -87, 1544, -451, -99050, -78680, -59290
263386, -154, 1841, -487, -88200, 24850, 133350
263406, -207, 1984, -424, -32620, 124950, 301140
263426, -165, 1997, -552, -2100, 74760, 199080
263446, -55, 1997, -748, -38010, -88760, -88130
263466, -91, 1997, -682, -69230, -109900, -123270
263486, -189, 1997, -458, -25130, 43470, 138320
263506, -183, 1827, -390, -8190, 95830, 225750
263526, -97, 1762, -477, -35840, -40460, -12320
263546, -48, 1557, -449, -35980, -147280, -206220
263566, -77, 1196, -304, 7210, -90160, -116900
263586, -104, 785, -158, 43400, 29750, 91000
263606, -114, 690, -124, 32690, 81270, 188650
263626, -133, 1081, -231, 5460, 51170, 144480
263646, -103, 1474, -382, -8960, -16940, 28910
263666, -81, 1607, -427, 1330, -68670, -65590
263686, -103, 1282, -304, 28700, -40110, -20230
263706, -113, 827, -163, 33180, 35350, 117670
263726, -96, 463, -68, 2590, 58450, 170940
263746, -72, 252, -34, -23030, 16730, 106960
263766, -63, 223, -34, -27160, -39060, 10990
263786, -62, 328, -78, -21280, -79380, -63140
263806, -53, 440, -121, -10360, -100310, -106610
263826, -44, 285, -65, 18620, -97720, -116340
263846, -40, 137, -9, 59010, -68600, -80360
263866, -31, 55, 14, 76160, -42980, -37800
263886, -27, 20, 24, 68320, -38710, -21070
263906, -24, 8, 28, 52360, -46830, -21210
263926, -24, 5, 30, 35070, -59780, -26950
263946, -25, 16, 25, -1330, -86450, -31920
263966, -36, 50, 19, -20510, -97720, -29470
263986, -58, 207, -16, -45500, -109690, -24430
264006, -70, 1022, -286, -92960, -117600, 700
264026, -141, 1243, -358, -166040, -63770, 145460
264046, -177, 813, -185, -182350, 31080, 341460
264066, -120, 344, -34, -78890, 1400, 257180
264086, -92, 137, -7, 14350, -117670, 2170
264106, -99, 263, -23, 26810, -208040, -174300
264126, -133, 715, -169, -10430, -260680, -262710
264146, -44, 1493, -496, -51450, -279160, -292180
264166, -86, 1948, -587, -13580, -167930, -111440
264186, -231, 1920, -374, 126420, 70700, 270620
264206, -263, 1881, -292, 156590, 144550, 370790
264226, -162, 1997, -653, 35490, -94920, -43470
264246, 22, 1997, -851, -28420, -284550, -381640
264266, -126, 1997, -566, 110810, -108220, -112280
264286, -232, 1832, -313, 197470, 142590, 301770
264306, -174, 1924, -475, 35700, 82740, 214130
264326, -29, 1997, -721, -88060, -154630, -188790
264346, -31, 1997, -616, 4550, -182350, -272580
264366, -176, 1681, -340, 142730, 35490, 77210
264386, -175, 1088, -194, 63280, 177870, 341180
264406, -122, 895, -217, -101850, 85470, 211820
264426, -79, 946, -288, -118930, -74480, -72870
264446, -29, 1260, -366, -15400, -131390, -214060
264466, -76, 1425, -343, 102690, -56560, -119770
264486, -183, 1143, -206, 137760, 101220, 159740
264506, -169, 791, -138, 21980, 202790, 375550
264526, -127, 621, -135, -110740, 147490, 312970
264546, -100, 596, -154, -104160, 7840, 62300
264566, -66, 604, -165, 2520, -94570, -156520
264586, -43, 550, -135, 96320, -115920, -227990
264606, -40, 384, -70, 131530, -75250, -160930
264626, -46, 217, -19, 111020, -14000, -30520
264646, -45, 126, 3, 61530, 31010, 81970
264666, -42, 66, 14, 12530, 44380, 136220
264686, -36, 27, 21, -25060, 39970, 153510
264706, -31, 10, 22, -51380, 26810, 150430
264726, -27, 7, 20, -68320, 10990, 138110
264746, -26, 2, 15, -81480, -3850, 127190
264766, -26, 0, 13, -91490, -16310, 119630
264786, -28, -1, 17, -95760, -25480, 112910
264806, -32, 0, 17, -96250, -43960, 92470
264826, -38, 1, 15, -96250, -58380, 73920
264846, -63, 29, 15, -92540, -78190, 40600
264866, -181, 307, -5, -86800, -117040, -31290
264886, -281, 1251, -274, -71820, -244510, -273770
264906, -135, 1946, -609, -52150, -414540, -619850
264926, 14, 1916, -628, -36680, -329840, -508340
264946, -175, 1451, -333, 27510, 8260, 82390
264966, -232, 983, -119, -12810, 204050, 447300
264986, -228, 782, -101, -118930, 79100, 248710
265006, -231, 1049, -250, -143010, -193410, -243950
265026, 57, 1806, -601, -101850, -352870, -581770
265046, -17, 1997, -671, 23310, -251930, -473900
265066, -268, 1997, -412, 162050, 84770, 90440
265086, -249, 1586, -201, 42560, 288470, 475650
265106, -226, 1982, -536, -135450, 73500, 125440
265126, 8, 1997, -882, -14910, -224420, -444290
265146, -107, 1997, -663, 207340, -140700, -351470
265166, -309, 1910, -396, 183260, 212660, 287210
265186, -233, 1501, -378, -87360, 320950, 532840
265206, -126, 1931, -578, -89390, 75110, 97790
265226, -12, 1997, -645, 184800, -115010, -302330
265246, -198, 1965, -462, 256480, 1610, -97860
265266, -255, 1307, -311, 22400, 244300, 398020
265286, -196, 1007, -268, -175350, 285320, 523250
265306, -140, 1101, -278, -34020, 116690, 190260
265326, -85, 1007, -215, 217490, -48720, -172760
265346, -44, 595, -86, 245910, -94430, -249200
265366, -47, 288, -40, 99330, -51450, -110740
265386, -50, 195, -25, -35840, -8960, 29890
265406, -57, 205, -47, -98070, 10290, 100660
265426, -67, 250, -68, -119840, 17710, 129430
265446, -68, 210, -50, -103670, 23730, 130410
265466, -62, 129, -14, -48300, 22470, 93800
265486, -56, 94, 4, 17920, 8050, 24850
265506, -56, 94, 8, 54880, -16590, -48020
265526, -63, 137, 8, 59360, -44310, -107940
265546, -79, 276, -11, 41230, -72030, -154910
265566, -80, 554, -91, -2170, -102270, -193760
265586, -55, 604, -153, -80220, -131950, -218470
265606, -40, 415, -134, -181300, -135240, -189420
265626, -42, 321, -120, -239960, -92120, -95970
265646, -56, 372, -132, -218890, -31290, -5670
265666, -82, 457, -124, -54670, 62230, 58170
265686, -98, 458, -80, 31430, 77980, 31640
265706, -96, 390, -39, 53200, 53340, -35350
265726, -87, 376, -31, 5180, 2870, -114940
265746, -91, 598, -109, -72660, -43680, -174720
265766, -68, 820, -228, -145810, -65380, -195790
265786, -51, 851, -289, -153300, -27510, -137900
265806, -76, 709, -225, -49140, 73010, -7630
265826, -117, 895, -232, 86590, 166250, 97090
265846, -147, 1144, -242, 162960, 204330, 123620
265866, -153, 1421, -295, 142520, 179830, 75320
265886, -117, 1700, -450, 40250, 115640, -13370
265906, -100, 1958, -574, -14980, 89320, -48650
265926, -140, 1997, -600, 75530, 147770, 25620
265946, -183, 1997, -563, 174650, 223440, 126770
265966, -148, 1997, -648, 79100, 200900, 98000
265986, -86, 1997, -694, -65100, 104230, -50680
266006, -106, 1997, -514, -2240, 92400, -92750
266026, -129, 1534, -327, 87640, 157010, -1400
266046, -114, 1117, -240, 8540, 168490, 36120
266066, -86, 912, -226, -106400, 119140, -23870
266086, -70, 961, -268, -130340, 79170, -91630
266106, -79, 1275, -345, -76580, 84840, -101360
266126, -119, 1405, -327, -4620, 134820, -33180
266146, -140, 1213, -251, 6230, 190540, 67060
266166, -116, 901, -197, -68110, 186830, 84140
266186, -87, 705, -170, -125510, 124460, -10290
266206, -65, 483, -114, -106540, 71190, -112980
266226, -53, 253, -44, -56420, 57680, -154630
266246, -44, 146, -11, -24850, 65100, -150640
266266, -50, 310, -59, -19950, 68880, -140070
266286, -60, 818, -230, -30030, 69440, -125650
266306, -110, 1008, -274, -39970, 95830, -62720
266326, -145, 730, -163, -43680, 179550, 100730
266346, -126, 419, -61, -57890, 244790, 230300
266366, -104, 273, -35, -60060, 212240, 173320
266386, -105, 368, -56, -34510, 123480, 5040
266406, -106, 593, -131, 3780, 40320, -156310
266426, -64, 677, -172, 32620, -19810, -270830
266446, -46, 490, -109, 51730, -34790, -295680
266466, -53, 529, -123, 45360, 6650, -200690
266486, -77, 801, -211, 21210, 59570, -73430
266506, -139, 844, -250, -3570, 112420, 52990
266526, -1205, 1745, -796, 371140, -63420, 524720
266546, 639, 1997, 1825, 419580, -537320, 111930
266566, 719, 1375, -1719, 235340, -602000, -327810
266586, -455, 1180, -554, -195300, -688450, 195860
266606, -145, 1141, -274, -273910, -763280, 122780
266626, -288, 997, -101, -151690, -501900, -11550
266646, -372, 1172, -46, -94640, -251440, -13370
266666, -258, 1073, 0, -86590, -150640, -23310
266686, -262, 933, 122, -109270, -147140, -49280
266706, -275, 929, 179, -94920, -137970, -43190
266726, -293, 926, 256, -66360, -91140, 0
266746, -311, 939, 328, -52990, -56700, 20930
266766, -344, 915, 355, -45920, -47670, 13930
266786, -349, 890, 344, -43960, -48020, 3920
266806, -409, 908, 337, -37730, -39690, 7770
266826, -410, 910, 301, -36050, -33460, 12180
266846, -361, 899, 324, -51520, -49630, 4060
266866, -330, 886, 327, -73220, -63140, -5740
266886, -317, 874, 344, -94010, -64330, -9800
266906, -358, 865, 411, -120890, -65660, -23310
266926, -284, 800, 382, -157010, -88270, -52010
266946, -182, 693, 508, -202440, -129430, -75530
266966, -201, 552, 655, -236670, -146300, -77560
266986, -191, 555, 747, -238000, -137830, -66640
267006, -124, 382, 653, -212660, -180320, -48370
267026, -31, 345, 845, -188370, -185570, -11410
267046, -55, 348, 854, -133070, -147210, 5670
267066, 231, 411, 1001, -91210, -82460, 2450
267086, -307, 448, 1083, -62860, -63700, 37730
267106, -219, 307, 1047, -26460, -70770, 85470
267126, -181, 447, 995, -37030, -52990, 43260
267146, 110, 526, 812, -30310, -104720, 27580
267166, 41, 463, 881, -34930, -115710, -7210
267186, -7, 441, 942, -28000, -54810, -7700
267206, -91, 467, 995, -15890, 11060, 9800
267226, -66, 426, 1009, -9380, 32900, 17360
267246, -9, 381, 979, -16310, 10920, 14070
267266, -54, 373, 981, -16100, -4830, 17500
267286, -30, 404, 986, 140, 4690, 26390
267306, 11, 393, 958, 9380, 770, 29540
267326, 0, 395, 949, 7630, -13580, 25410
267346, 17, 402, 937, 7770, -8680, 22890
267366, 0, 409, 923, 12040, -840, 23100
267386, 8, 424, 923, 9870, -10920, 12670
267406, 72, 409, 892, 5950, -23590, 8750
267426, 12, 437, 922, 10150, -22750, 9870
267446, -312, 959, 1998, 17360, -10780, 11200
267466, -101, 492, 1211, -700, -10010, 7070
267486, 106, 481, 928, -12600, -21630, 5880
267506, 52, 451, 958, -1820, -13930, 6860
267526, 27, 448, 971, 700, -3500, 14560
267546, 65, 430, 969, -4340, -13090, 10640
267566, 78, 417, 957, -9170, -15890, 5530
267586, -1202, -469, 1743, -7770, -9240, 5460
